Timestamp,Label_ML,Cam_Face_Det,Cam_Pitch,Cam_Yaw,Cam_EAR,Gyro_Acc_X,Gyro_Acc_Y,Gyro_Acc_Z,Gyro_Rot_X,Gyro_Rot_Y,Gyro_Rot_Z,Audio_dB,Light_Lux,Temp_C,Humidity_Perc,Gas_Pin,Alcohol_Pin
10:47:21.189,VIGILE,0,0.0,0.0,0.0,-0.783,3.452,-9.0,-0.14,0.071,-0.022,80.23,0.0,25.5,40,1,1
10:47:21.689,VIGILE,0,0.0,0.0,0.0,-0.948,3.493,-9.297,-0.14,0.077,-0.022,81.9,0.0,25.5,40,1,1
10:47:22.189,VIGILE,0,0.0,0.0,0.0,-0.958,3.419,-8.904,-0.127,0.064,-0.017,79.13,0.0,25.5,40,1,1
10:47:22.689,VIGILE,0,0.0,0.0,0.0,-0.893,3.515,-9.246,-0.127,0.067,-0.017,74.04,0.0,25.5,40,1,1
10:47:23.189,VIGILE,0,0.0,0.0,0.0,-0.874,3.522,-8.885,-0.141,0.064,-0.019,78.01,0.0,25.5,40,1,1
10:47:23.690,VIGILE,1,-171.92,27.15,0.31,-1.008,3.364,-8.844,-0.112,0.076,-0.018,79.72,0.0,25.5,40,1,1
10:47:24.190,VIGILE,1,-168.84,27.11,0.205,-1.022,3.431,-9.024,-0.134,0.062,-0.021,80.17,0.0,25.5,40,1,1
10:47:24.690,VIGILE,1,-168.61,31.26,0.373,-0.747,3.333,-8.842,-0.126,0.071,-0.018,80.42,0.0,25.5,40,1,1
10:47:25.190,VIGILE,1,-127.77,72.04,0.351,-0.716,3.436,-9.131,-0.137,0.067,-0.019,79.16,0.0,25.5,40,1,1
10:47:25.690,VIGILE,1,-134.19,70.91,0.344,-0.845,3.486,-8.945,-0.145,0.074,-0.024,81.39,0.0,25.5,40,1,1
10:47:26.190,VIGILE,1,-135.32,70.49,0.266,-0.903,3.247,-9.012,-0.133,0.074,-0.021,82.11,0.0,25.5,40,1,1
10:47:26.690,VIGILE,1,-166.76,28.49,0.274,-0.991,3.452,-9.189,-0.152,0.078,-0.024,76.9,0.0,25.5,40,1,1
10:47:27.190,VIGILE,1,-131.82,68.11,0.254,-0.773,3.359,-8.78,-0.129,0.068,-0.014,79.43,0.0,25.5,40,1,1
10:47:27.690,VIGILE,1,-165.2,27.3,0.265,-0.931,3.582,-9.309,-0.128,0.069,-0.021,79.72,0.0,25.5,40,1,1
10:47:28.190,VIGILE,1,-131.94,71.6,0.383,-0.84,3.469,-8.899,-0.143,0.079,-0.022,81.77,0.0,25.5,40,1,1
10:47:28.690,VIGILE,1,-134.08,69.75,0.313,-0.979,3.419,-9.167,-0.121,0.064,-0.015,81.17,0.0,25.5,40,1,1
10:47:29.190,VIGILE,1,-167.88,27.89,0.234,-1.022,3.484,-9.208,-0.137,0.069,-0.019,80.92,0.0,25.5,40,1,1
10:47:29.690,VIGILE,1,-172.3,27.86,0.294,-0.95,3.357,-8.894,-0.133,0.074,-0.018,82.9,0.0,25.5,40,1,1
10:47:30.190,VIGILE,0,0.0,0.0,0.0,-0.883,3.338,-9.012,-0.114,0.064,-0.019,81.72,0.0,25.5,40,1,1
10:47:30.690,VIGILE,1,-175.46,57.52,0.26,-0.737,3.565,-9.139,-0.147,0.071,-0.023,82.51,0.0,25.5,40,1,1
10:47:31.191,VIGILE,1,177.35,48.0,0.359,-0.965,3.467,-8.854,-0.136,0.068,-0.021,83.09,0.0,25.4,40,1,1
10:47:31.691,VIGILE,1,-168.18,60.55,0.545,-0.785,3.395,-8.911,-0.124,0.071,-0.018,80.97,0.0,25.4,40,1,1
10:47:32.191,VIGILE,1,179.68,1.76,0.269,-0.912,3.484,-9.237,-0.146,0.066,-0.026,82.68,0.0,25.4,40,1,1
10:47:32.691,VIGILE,1,-173.94,17.29,0.276,-0.867,3.29,-9.05,-0.129,0.076,-0.015,81.24,0.0,25.4,40,1,1
10:47:33.191,VIGILE,1,178.04,-11.84,0.25,-0.67,3.39,-9.076,-0.141,0.079,-0.022,80.4,0.0,25.4,40,1,1
10:47:33.691,VIGILE,1,178.87,-9.83,0.259,-0.639,3.285,-9.062,-0.161,0.082,-0.035,84.28,0.0,25.4,40,1,1
10:47:34.191,VIGILE,1,-178.69,-10.03,0.246,-0.278,2.923,-9.182,-0.13,0.076,-0.055,77.15,0.0,25.4,40,1,1
10:47:34.691,VIGILE,1,-179.13,-13.86,0.264,-0.254,2.722,-10.087,-0.119,0.101,-0.144,80.14,0.0,25.4,40,1,1
10:47:35.191,VIGILE,1,179.06,-16.1,0.16,-0.383,2.588,-9.136,-0.143,0.179,-0.276,72.54,0.0,25.4,40,1,1
10:47:35.691,VIGILE,1,179.38,-19.48,0.281,-0.455,3.081,-9.708,-0.152,0.16,-0.382,86.73,0.0,25.4,40,1,1
10:47:36.191,VIGILE,1,179.07,-22.48,0.28,-1.377,2.942,-9.139,-0.238,0.242,-0.489,87.22,0.0,25.4,40,1,1
10:47:36.691,VIGILE,1,177.76,-18.21,0.26,-2.152,2.962,-9.491,-0.155,0.199,-0.4,82.64,0.0,25.4,40,1,1
10:47:37.191,VIGILE,1,177.52,-15.2,0.254,-2.042,3.503,-8.768,-0.15,0.164,-0.261,82.1,0.0,25.4,40,1,1
10:47:37.691,VIGILE,1,175.2,-11.98,0.236,-2.437,4.149,-8.593,-0.156,0.111,-0.141,77.47,0.0,25.4,40,1,1
10:47:38.191,VIGILE,1,-171.24,3.5,0.223,-2.1,3.982,-8.571,-0.147,0.09,-0.055,72.1,0.0,25.4,40,1,1
10:47:38.691,VIGILE,0,0.0,0.0,0.0,-0.584,2.938,-8.971,-0.118,0.077,-0.011,81.09,0.0,25.4,40,1,1
10:47:39.192,VIGILE,1,-173.53,-9.21,0.255,-0.857,3.239,-8.961,-0.134,0.074,-0.011,80.69,0.0,25.4,40,1,1
10:47:39.692,VIGILE,0,0.0,0.0,0.0,-0.986,3.22,-8.854,-0.132,0.083,-0.024,81.79,0.0,25.4,40,1,1
10:47:40.192,VIGILE,1,-172.47,-14.48,0.286,-1.01,3.39,-8.89,-0.136,0.071,-0.021,76.52,0.0,25.4,40,1,1
10:47:40.692,VIGILE,1,165.07,-63.74,0.32,0.227,3.194,-9.675,-0.136,0.082,-0.029,77.81,0.0,25.4,40,1,1
10:47:41.192,VIGILE,0,0.0,0.0,0.0,1.058,3.146,-9.486,-0.098,0.057,0.007,73.77,0.0,25.4,40,1,1
10:47:41.692,VIGILE,1,-175.07,14.26,0.303,0.931,3.706,-9.615,-0.118,0.035,0.091,83.69,0.0,25.4,40,1,1
10:47:42.192,VIGILE,1,-174.84,35.87,0.331,2.195,4.238,-9.127,-0.006,0.001,0.286,74.97,0.0,25.4,40,1,1
10:47:42.692,VIGILE,1,176.77,34.52,0.308,-0.354,3.883,-8.734,-0.105,-0.025,0.265,79.79,0.0,25.4,40,1,1
10:47:43.192,VIGILE,1,-173.7,32.23,0.306,0.369,3.876,-8.772,-0.002,-0.055,0.335,77.59,0.0,25.4,40,1,1
10:47:43.692,VIGILE,1,-177.71,29.51,0.254,0.694,3.931,-8.926,-0.11,-0.073,0.386,82.38,0.0,25.4,40,1,1
10:47:44.192,VIGILE,1,177.48,12.71,0.253,0.108,5.265,-9.44,-0.01,-0.117,0.408,81.16,0.0,25.4,40,1,1
10:47:44.692,VIGILE,1,-179.25,12.93,0.271,0.091,4.805,-8.547,-0.234,-0.013,0.28,89.34,0.0,25.4,40,1,1
10:47:45.192,VIGILE,1,-179.59,13.99,0.294,0.249,3.539,-9.196,-0.101,-0.001,0.178,81.83,0.0,25.4,40,1,1
10:47:45.693,VIGILE,1,-179.29,15.62,0.272,-0.532,4.19,-9.278,-0.139,0.048,0.032,87.21,0.0,25.4,40,1,1
10:47:46.193,VIGILE,1,-179.43,-0.18,0.264,-0.172,3.112,-8.758,-0.083,0.053,0.054,72.27,0.0,25.4,40,1,1
10:47:46.693,VIGILE,0,0.0,0.0,0.0,0.278,2.361,-8.665,-0.174,0.052,0.014,74.17,0.0,25.4,40,1,1
10:47:47.193,VIGILE,1,176.08,5.32,0.295,0.778,2.854,-9.261,-0.068,-0.002,0.03,81.44,0.0,25.4,40,1,1
10:47:47.693,VIGILE,1,-164.63,2.89,0.24,-0.819,2.452,-9.155,-0.251,0.098,-0.008,86.73,0.0,25.4,40,1,1
10:47:48.193,VIGILE,1,-172.08,-6.2,0.258,-1.065,4.137,-9.694,-0.087,0.093,-0.026,86.7,0.0,25.4,40,1,1
10:47:48.693,VIGILE,1,176.36,1.04,0.256,-0.747,2.725,-8.99,-0.199,0.074,-0.014,87.84,0.0,25.4,39,1,1
10:47:49.193,VIGILE,1,175.88,-4.91,0.204,-0.582,4.051,-9.282,-0.18,0.127,-0.009,86.67,0.0,25.4,39,1,1
10:47:49.693,VIGILE,1,177.3,-3.18,0.257,0.007,3.44,-9.345,-0.095,-0.012,-0.027,86.82,0.0,25.4,39,1,1
10:47:50.193,VIGILE,1,-179.6,-6.27,0.258,-0.407,3.388,-10.041,-0.124,0.078,-0.004,83.01,0.0,25.4,39,1,1
10:47:50.693,VIGILE,1,171.99,-1.14,0.244,-1.468,3.682,-10.999,-0.156,-0.0,-0.055,81.27,0.0,25.4,39,1,1
10:47:51.193,VIGILE,1,177.68,-3.26,0.271,0.22,3.807,-9.172,-0.188,0.075,-0.02,86.79,0.0,25.4,39,1,1
10:47:51.693,VIGILE,1,179.09,-4.21,0.283,-1.317,2.406,-9.131,-0.064,0.018,-0.018,87.04,0.0,25.4,39,1,1
10:47:52.193,VIGILE,1,-179.14,-0.57,0.282,-0.227,4.336,-9.72,-0.085,0.062,-0.023,80.03,0.0,25.4,39,1,1
10:47:52.693,VIGILE,1,177.17,-2.26,0.269,0.0,3.22,-9.287,-0.07,0.01,0.025,74.33,0.0,25.4,39,1,1
10:47:53.193,VIGILE,1,179.47,-3.57,0.261,0.012,3.438,-8.866,-0.142,0.022,0.021,83.1,0.0,25.4,39,1,1
10:47:53.694,VIGILE,1,179.5,-4.67,0.269,0.445,5.274,-9.187,-0.044,0.013,0.076,77.03,0.0,25.3,39,1,1
10:47:54.194,VIGILE,1,176.18,-3.91,0.26,-1.02,4.908,-9.515,-0.021,0.008,0.103,79.39,0.0,25.3,39,1,1
10:47:54.694,VIGILE,1,176.06,0.38,0.282,-0.256,3.62,-9.567,-0.288,0.056,0.091,84.62,0.0,25.3,39,1,1
10:47:55.194,VIGILE,1,175.96,0.53,0.275,0.251,3.127,-7.944,-0.243,0.043,0.042,88.4,0.0,25.3,39,1,1
10:47:55.694,VIGILE,1,176.51,-1.37,0.195,0.924,3.831,-8.226,-0.113,0.026,0.056,83.77,0.0,25.3,39,1,1
10:47:56.194,VIGILE,1,176.39,0.11,0.227,-0.105,2.926,-9.62,-0.114,0.051,0.007,86.87,0.0,25.3,39,1,1
10:47:56.694,VIGILE,1,174.36,1.05,0.267,0.065,2.313,-9.445,-0.076,0.034,-0.013,86.15,0.0,25.3,39,1,1
10:47:57.194,VIGILE,1,177.77,-5.71,0.266,0.491,2.921,-9.309,-0.271,0.121,-0.015,87.74,0.0,25.3,39,1,1
10:47:57.694,VIGILE,1,174.59,-1.6,0.246,-0.012,3.472,-9.306,-0.114,0.033,-0.032,82.82,0.0,25.3,39,1,1
10:47:58.194,VIGILE,1,175.43,1.48,0.264,2.48,4.336,-11.188,0.141,0.046,-0.005,89.82,0.0,25.3,39,1,1
10:47:58.694,VIGILE,1,177.59,-2.45,0.239,0.498,2.67,-10.144,-0.132,0.021,-0.005,86.72,0.0,25.3,39,1,1
10:47:59.195,VIGILE,1,177.27,-3.7,0.251,-0.567,2.081,-9.507,-0.242,0.079,-0.008,80.05,0.0,25.3,39,1,1
10:47:59.695,VIGILE,1,175.54,-6.21,0.231,0.455,2.945,-8.595,-0.217,0.089,-0.035,87.22,0.0,25.3,39,1,1
10:48:00.195,VIGILE,1,177.71,-10.45,0.26,-0.352,2.239,-8.851,-0.213,0.097,-0.072,85.38,0.0,25.3,39,1,1
10:48:00.695,VIGILE,1,177.49,-2.61,0.181,0.019,3.328,-10.408,-0.094,-0.003,0.009,82.06,0.0,25.3,39,1,1
10:48:01.195,VIGILE,1,177.87,-7.7,0.244,-1.113,2.933,-8.811,-0.33,0.167,-0.085,89.11,0.0,25.3,39,1,1
10:48:01.695,VIGILE,1,177.06,-4.51,0.256,-1.721,2.102,-9.567,0.075,0.011,0.063,87.82,0.0,25.3,39,1,1
10:48:02.195,VIGILE,1,173.14,-4.74,0.25,-1.535,2.796,-8.329,-0.234,0.137,-0.04,85.07,0.0,25.3,39,1,1
10:48:02.695,VIGILE,1,177.45,-1.23,0.264,-1.609,3.496,-10.135,-0.063,0.044,0.01,85.89,0.0,25.3,39,1,1
10:48:03.195,VIGILE,1,176.18,-7.77,0.282,-1.386,2.77,-8.255,-0.348,0.145,-0.081,85.18,0.0,25.3,39,1,1
10:48:03.695,VIGILE,1,177.81,-8.18,0.277,-2.873,3.108,-9.838,0.082,0.011,0.081,86.38,0.0,25.3,38,1,1
10:48:04.195,VIGILE,1,176.82,-8.7,0.26,0.575,3.96,-8.334,-0.069,-0.014,-0.044,82.6,0.0,25.3,38,1,1
10:48:04.695,VIGILE,1,177.17,-7.45,0.25,-1.973,4.59,-8.717,-0.102,0.149,-0.013,88.91,0.0,25.3,38,1,1
10:48:05.195,VIGILE,1,178.24,-10.33,0.254,0.613,4.123,-8.159,-0.344,0.065,-0.086,80.9,0.0,25.3,38,1,1
10:48:05.695,VIGILE,1,-178.84,-15.45,0.275,-1.494,2.636,-9.807,-0.111,0.079,0.015,82.94,0.0,25.3,38,1,1
10:48:06.195,VIGILE,1,-179.46,-16.34,0.257,-3.232,4.642,-8.997,0.268,0.06,0.029,88.09,0.0,25.3,38,1,1
10:48:06.695,VIGILE,1,176.22,-7.36,0.268,-0.06,2.162,-8.255,-0.296,0.196,-0.061,88.36,0.0,25.3,38,1,1
10:48:07.196,VIGILE,1,175.15,-8.99,0.262,-0.941,2.018,-8.566,-0.289,0.077,-0.116,85.67,0.0,25.3,38,1,1
10:48:07.696,VIGILE,1,175.64,-8.55,0.196,-1.396,1.097,-11.691,-0.102,0.026,0.022,88.12,0.0,25.3,38,1,1
10:48:08.196,VIGILE,1,176.38,-7.51,0.226,-0.438,3.084,-9.416,-0.225,0.065,-0.037,86.38,0.0,25.3,38,1,1
10:48:08.696,VIGILE,1,178.57,-7.19,0.252,-2.337,4.025,-8.238,-0.275,0.111,0.008,84.9,0.0,25.3,38,1,1
10:48:09.196,VIGILE,1,174.91,20.46,0.22,-1.566,3.747,-9.498,0.015,-0.018,0.047,86.81,0.0,25.3,38,1,1
10:48:09.696,VIGILE,1,177.46,0.51,0.225,-1.41,3.905,-8.396,-0.254,0.068,-0.095,78.6,0.0,25.3,38,1,1
10:48:10.196,VIGILE,1,173.88,-6.27,0.21,-0.347,2.667,-7.57,-0.326,-0.017,-0.08,88.58,0.0,25.3,38,1,1
10:48:10.696,VIGILE,1,178.23,-12.34,0.265,-3.062,2.251,-6.321,-0.781,0.262,-0.203,88.03,0.0,25.3,38,1,1
10:48:11.196,VIGILE,1,178.13,-12.14,0.266,0.771,1.63,-10.072,0.06,-0.095,0.103,88.45,0.0,25.3,38,1,1
10:48:11.696,VIGILE,1,172.43,-9.92,0.268,-3.393,2.816,-9.392,-0.877,0.393,-0.224,81.34,0.0,25.3,38,1,1
10:48:12.196,VIGILE,1,175.1,-8.66,0.266,-1.377,2.983,-10.013,-0.07,-0.02,0.035,86.67,0.0,25.3,38,1,1
10:48:12.696,VIGILE,1,178.14,-9.27,0.284,-2.114,3.225,-9.005,0.085,-0.018,-0.032,85.5,0.0,25.3,38,1,1
10:48:13.196,VIGILE,1,177.4,-9.75,0.287,-1.573,2.277,-8.861,-0.104,-0.036,-0.023,81.84,0.0,25.3,38,1,1
10:48:13.696,VIGILE,1,173.36,-7.85,0.228,-1.573,2.483,-8.641,-0.172,0.064,-0.031,81.84,0.0,25.2,37,1,1
10:48:14.196,VIGILE,1,-177.07,10.6,0.124,-1.125,2.784,-10.151,-0.184,0.114,-0.019,81.84,0.0,25.2,37,1,1
10:48:14.696,VIGILE,0,0.0,0.0,0.0,-1.75,2.995,-8.229,-0.118,0.081,-0.034,81.84,0.0,25.2,37,1,1
10:48:15.197,VIGILE,1,-174.78,-16.18,0.314,-1.755,3.895,-9.402,-0.087,0.105,-0.024,81.84,0.0,25.2,37,1,1
10:48:15.697,VIGILE,1,176.08,-12.02,0.277,-1.197,3.428,-9.625,-0.143,0.07,-0.007,81.84,2372.43,25.2,37,1,1
10:48:16.197,VIGILE,1,176.49,-16.48,0.255,-0.486,2.969,-8.88,-0.12,0.034,-0.01,81.84,31.04,25.2,37,1,1
10:48:16.697,VIGILE,1,176.05,-6.49,0.252,-0.96,3.321,-8.387,-0.155,0.053,-0.038,81.84,10.21,25.2,37,1,1
10:48:17.197,VIGILE,1,176.86,-2.85,0.25,-1.022,3.323,-8.863,-0.107,0.04,-0.023,81.84,8.13,25.2,37,1,1
10:48:17.697,VIGILE,1,174.4,-4.64,0.205,-1.654,3.395,-9.184,-0.111,0.067,-0.03,81.84,12.57,25.2,37,1,1
10:48:18.197,VIGILE,1,175.2,-1.54,0.203,-1.336,3.352,-9.426,-0.164,0.031,-0.044,81.84,47.41,25.2,37,1,1
10:48:18.697,VIGILE,1,176.93,-10.69,0.253,-2.114,3.024,-9.357,-0.077,0.084,-0.03,81.84,443.36,25.2,37,1,0
10:48:19.197,VIGILE,1,178.98,-8.62,0.207,-1.389,3.541,-9.938,-0.065,0.029,-0.025,81.84,2537.46,25.2,37,1,0
10:48:19.697,VIGILE,1,178.77,-6.3,0.197,-0.934,3.263,-9.622,-0.186,0.095,-0.061,81.84,0.0,25.2,37,1,0
10:48:20.197,VIGILE,1,179.18,-8.5,0.2,-0.879,1.784,-9.723,-0.062,0.05,-0.067,81.84,0.0,25.2,37,1,0
10:48:20.697,VIGILE,1,179.11,-5.85,0.205,-1.879,1.358,-8.638,-0.137,0.151,-0.095,81.84,0.0,25.2,37,1,0
10:48:21.197,VIGILE,1,179.5,-10.97,0.212,-2.591,3.062,-9.519,-0.116,0.116,-0.102,81.84,0.0,25.1,37,1,0
10:48:21.697,VIGILE,1,178.79,-11.26,0.244,-1.274,2.423,-8.478,-0.18,0.14,-0.097,81.84,0.0,25.1,37,1,0
10:48:22.197,VIGILE,1,175.51,-3.68,0.207,-1.575,1.556,-8.681,-0.224,0.138,-0.1,81.84,0.0,25.1,37,1,0
10:48:22.697,VIGILE,1,176.64,0.1,0.201,0.785,2.272,-10.977,-0.12,0.073,-0.042,81.84,0.0,25.1,37,1,0
10:48:23.198,VIGILE,1,176.59,-0.44,0.204,-1.077,1.542,-9.306,-0.204,0.112,-0.056,81.84,0.0,25.1,37,1,0
10:48:23.698,VIGILE,1,175.14,0.45,0.214,-0.781,1.865,-9.68,-0.128,0.092,-0.026,81.84,0.0,25.1,37,1,0
10:48:24.198,VIGILE,1,177.49,-4.95,0.199,-1.384,1.966,-9.503,-0.272,0.182,-0.084,81.84,0.0,25.1,37,1,0
10:48:24.698,VIGILE,1,177.6,-3.73,0.207,1.508,3.098,-10.951,-0.052,-0.015,-0.006,81.84,0.0,25.1,37,0,0
10:48:25.198,EBBREZZA,1,-179.55,-7.2,0.236,-1.101,1.554,-7.266,-0.419,0.175,-0.094,81.84,0.0,25.1,37,0,0
10:48:25.698,EBBREZZA,1,176.95,-2.59,0.201,-1.346,2.954,-9.002,-0.134,0.136,-0.04,81.84,0.0,25.1,37,0,0
10:48:26.198,EBBREZZA,1,176.56,-1.1,0.207,-0.922,3.622,-9.663,-0.157,0.104,-0.046,81.84,0.0,25.1,37,0,0
10:48:26.698,EBBREZZA,1,179.58,-1.01,0.226,-0.622,3.469,-8.507,-0.043,0.057,-0.006,81.84,0.0,25.1,37,0,0
10:48:27.198,EBBREZZA,1,179.77,-0.09,0.208,-0.891,3.455,-9.349,-0.196,0.048,-0.026,81.84,0.0,25.1,37,0,0
10:48:27.698,EBBREZZA,1,176.81,-4.59,0.22,1.034,3.967,-9.005,-0.013,-0.01,0.026,81.84,0.0,25.1,37,0,0
10:48:28.198,EBBREZZA,1,179.17,-4.49,0.234,-0.146,2.978,-8.648,-0.122,0.004,-0.025,81.84,0.0,25.1,37,0,0
10:48:28.699,EBBREZZA,1,179.76,-9.84,0.256,-0.491,1.618,-7.769,-0.236,0.078,-0.041,81.84,0.0,25.1,37,0,0
10:48:29.199,EBBREZZA,1,-178.97,-1.56,0.25,-2.205,3.915,-9.768,-0.035,-0.013,0.013,81.84,0.0,25.1,37,0,0
10:48:29.699,EBBREZZA,1,179.15,-4.68,0.22,-2.614,2.569,-8.186,-0.083,-0.03,0.053,81.84,0.0,25.1,37,0,0
10:48:30.199,EBBREZZA,1,179.54,-7.79,0.204,-1.635,3.886,-9.876,-0.006,0.034,0.016,81.84,0.0,25.1,37,0,0
10:48:30.699,EBBREZZA,1,179.95,-6.92,0.226,0.972,3.014,-6.8,-0.222,0.103,-0.033,81.84,0.0,25.1,37,0,0
10:48:31.199,EBBREZZA,1,176.78,-5.27,0.207,-1.487,3.548,-9.632,-0.044,0.035,0.022,81.84,0.0,25.0,37,0,0
10:48:31.699,EBBREZZA,1,177.4,-5.59,0.206,-1.226,3.105,-9.651,-0.183,0.079,0.017,81.84,0.0,25.0,37,0,0
10:48:32.199,EBBREZZA,1,177.93,-0.13,0.201,-1.034,2.993,-8.887,-0.136,0.044,-0.002,81.84,0.0,25.0,37,0,0
10:48:32.699,EBBREZZA,1,177.6,13.01,0.218,-0.766,3.555,-8.789,-0.207,0.107,-0.072,81.84,0.0,25.0,37,0,0
10:48:33.199,EBBREZZA,1,176.21,-6.17,0.267,-1.245,2.95,-8.861,-0.144,0.081,-0.032,81.84,0.0,25.0,37,0,0
10:48:33.699,EBBREZZA,1,177.83,-5.32,0.224,-2.059,3.074,-9.184,-0.055,0.044,-0.002,81.84,0.0,25.0,37,0,0
10:48:34.199,EBBREZZA,1,178.38,-2.19,0.259,-1.264,3.089,-9.349,-0.143,0.048,-0.013,81.84,0.0,25.0,37,0,0
10:48:34.699,EBBREZZA,1,177.66,-2.88,0.253,-1.144,3.405,-8.753,-0.159,0.102,-0.037,81.84,0.0,25.0,37,0,0
10:48:35.199,EBBREZZA,1,178.25,-13.53,0.259,-1.355,3.304,-9.39,-0.091,0.018,0.015,81.84,0.0,25.0,37,0,0
10:48:35.699,EBBREZZA,1,176.21,-10.9,0.279,-1.075,3.156,-8.784,-0.163,0.086,-0.01,81.84,0.0,25.0,37,0,0
10:48:36.199,EBBREZZA,1,174.54,-9.22,0.226,-1.712,3.45,-8.614,-0.193,0.07,-0.02,81.84,0.0,25.0,37,0,0
10:48:36.699,EBBREZZA,1,178.04,-10.38,0.251,-2.327,3.163,-8.406,-0.169,0.065,-0.021,81.84,0.0,25.0,37,0,0
10:48:37.200,EBBREZZA,1,172.57,-7.22,0.242,-1.851,3.455,-8.55,-0.156,0.077,-0.03,81.84,0.0,25.0,37,0,0
10:48:37.700,EBBREZZA,1,176.67,-8.85,0.262,-0.709,2.995,-9.285,-0.101,0.064,-0.013,81.84,0.0,25.0,37,0,0
10:48:38.200,EBBREZZA,1,177.16,-7.7,0.257,-1.865,2.995,-9.048,-0.171,0.082,-0.073,81.84,0.0,25.0,37,0,0
10:48:38.700,EBBREZZA,1,177.9,-3.69,0.264,-0.943,3.359,-9.234,-0.165,0.082,-0.079,81.84,0.0,25.0,37,0,0
10:48:39.200,EBBREZZA,1,179.39,-3.41,0.24,-1.891,3.084,-9.388,-0.047,0.048,-0.021,81.84,0.0,25.0,37,0,0
10:48:39.700,EBBREZZA,1,179.62,0.71,0.241,-1.575,3.019,-8.995,-0.142,0.078,-0.016,81.84,0.0,25.0,37,0,0
10:48:40.200,EBBREZZA,1,176.98,8.69,0.229,-1.384,2.892,-9.313,-0.232,0.103,-0.038,81.84,0.0,25.0,37,0,0
10:48:40.700,EBBREZZA,1,177.23,-2.04,0.274,-1.393,2.686,-9.28,-0.142,0.1,-0.01,81.84,0.0,25.0,37,0,0
10:48:41.200,EBBREZZA,1,178.09,3.29,0.248,-1.448,3.338,-9.134,-0.134,0.082,-0.034,81.84,0.0,25.0,37,0,0
10:48:41.700,EBBREZZA,1,177.77,21.24,0.269,-1.372,3.17,-9.076,-0.155,0.061,0.019,81.84,0.0,25.0,37,0,0
10:48:42.200,EBBREZZA,1,-178.17,21.06,0.28,-0.479,5.406,-8.152,-0.125,0.039,0.196,81.84,0.0,25.0,37,1,0
10:48:42.700,EBBREZZA,1,-179.63,30.83,0.321,-0.045,5.011,-8.332,-0.107,0.007,0.363,81.84,0.0,25.0,37,1,0
10:48:43.200,EBBREZZA,1,-178.08,30.07,0.293,-0.397,5.461,-8.557,-0.157,-0.089,0.326,81.84,0.0,25.0,37,1,0
10:48:43.700,EBBREZZA,1,177.35,3.75,0.248,-0.352,6.009,-8.468,-0.149,-0.086,0.326,81.84,0.0,25.0,37,1,0
10:48:44.200,EBBREZZA,1,-179.98,13.33,0.243,-0.266,4.396,-8.796,-0.057,-0.013,0.346,81.84,0.0,25.0,37,1,0
10:48:44.701,EBBREZZA,1,177.24,16.0,0.256,-0.072,3.326,-9.395,-0.065,0.023,0.184,81.84,0.0,25.0,37,1,0
10:48:45.201,EBBREZZA,1,172.44,9.6,0.246,-0.764,3.309,-8.681,-0.069,0.013,0.044,81.84,0.0,25.0,37,1,0
10:48:45.701,EBBREZZA,1,177.55,6.59,0.22,-1.437,3.242,-9.177,-0.148,0.057,0.002,81.84,0.0,25.0,37,1,0
10:48:46.201,EBBREZZA,1,178.66,5.9,0.221,-1.111,3.539,-9.062,-0.159,0.087,0.024,81.84,0.0,25.0,37,1,0
10:48:46.701,EBBREZZA,0,0.0,0.0,0.0,-1.245,3.189,-8.305,-0.234,0.073,0.015,81.84,0.0,25.0,37,1,0
10:48:47.201,EBBREZZA,0,0.0,0.0,0.0,-1.01,3.814,-9.345,-0.13,0.111,0.021,81.84,0.0,25.0,37,1,0
10:48:47.701,EBBREZZA,1,-176.46,29.24,0.261,-0.9,2.346,-10.233,-0.326,0.114,-0.04,81.84,0.0,25.0,37,1,0
10:48:48.201,EBBREZZA,1,178.27,33.68,0.234,-1.022,1.899,-8.353,-0.227,0.112,-0.008,81.84,0.0,25.0,37,1,0
10:48:48.701,EBBREZZA,1,179.5,31.7,0.238,-0.836,2.088,-9.618,-0.076,0.156,-0.005,81.84,0.0,25.0,37,1,0
10:48:49.201,EBBREZZA,1,177.32,31.85,0.209,0.646,3.512,-8.746,-0.005,-0.039,0.002,81.84,0.0,25.0,37,1,0
10:48:49.701,EBBREZZA,1,177.35,40.1,0.241,1.489,1.911,-8.966,-0.125,0.092,0.045,81.84,0.0,25.0,37,1,0
10:48:50.201,EBBREZZA,1,174.8,36.2,0.231,1.53,3.251,-9.1,-0.204,0.035,0.072,81.84,0.0,25.0,37,1,0
10:48:50.701,EBBREZZA,1,175.07,33.24,0.215,1.317,3.862,-9.373,-0.127,0.028,0.111,81.84,0.0,25.0,37,1,0
10:48:51.201,EBBREZZA,1,173.19,27.24,0.27,-0.081,4.099,-9.021,-0.144,0.042,0.09,81.84,0.0,24.9,37,1,0
10:48:51.701,EBBREZZA,1,173.46,15.09,0.274,-0.778,3.622,-8.645,-0.103,0.037,0.046,81.84,0.0,24.9,37,1,0
10:48:52.201,EBBREZZA,1,173.53,12.14,0.252,-0.783,2.983,-9.036,-0.105,0.047,0.017,81.84,0.0,24.9,37,1,0
10:48:52.701,VIGILE,1,176.6,7.01,0.256,-0.182,3.508,-9.254,-0.122,0.049,-0.007,81.84,0.0,24.9,37,1,0
10:48:53.202,VIGILE,1,176.35,13.32,0.245,-0.01,2.389,-9.017,-0.175,0.08,-0.019,81.84,0.0,24.9,37,1,0
10:48:53.702,VIGILE,1,175.24,18.27,0.224,-0.316,2.811,-9.234,-0.172,0.098,-0.034,81.84,0.0,24.9,37,1,0
10:48:54.202,VIGILE,1,175.09,15.21,0.224,0.034,2.966,-8.976,-0.119,0.059,-0.018,81.84,0.0,24.9,37,1,0
10:48:54.702,VIGILE,1,177.39,1.79,0.241,-0.476,3.249,-9.85,-0.035,0.057,-0.003,81.84,0.0,24.9,37,1,0
10:48:55.202,VIGILE,1,179.06,6.46,0.266,-0.34,2.99,-9.328,-0.128,0.082,-0.039,81.84,0.0,24.9,37,1,0
10:48:55.702,VIGILE,1,177.31,15.02,0.226,-1.077,3.397,-9.512,-0.07,0.059,-0.003,81.84,0.0,24.9,37,1,0
10:48:56.202,VIGILE,1,177.03,11.05,0.204,-0.453,2.313,-9.029,-0.183,0.096,-0.032,81.84,0.0,24.9,37,1,0
10:48:56.702,VIGILE,1,177.02,10.3,0.257,-1.025,2.813,-8.993,-0.132,0.058,-0.036,81.84,0.0,24.9,37,1,0
10:48:57.202,VIGILE,1,176.42,11.26,0.264,-0.4,2.904,-9.1,-0.132,0.064,-0.009,81.84,0.0,24.9,37,1,0
10:48:57.702,VIGILE,1,177.05,15.41,0.257,-0.646,2.777,-9.373,-0.083,0.044,-0.024,81.84,0.0,24.9,37,1,0
10:48:58.202,VIGILE,1,174.73,34.73,0.217,-1.255,3.694,-8.851,-0.207,0.051,-0.037,81.84,0.0,24.9,37,1,0
10:48:58.702,VIGILE,1,174.85,33.52,0.217,-1.571,3.045,-8.617,-0.138,0.086,-0.019,81.84,0.0,24.9,37,1,0
10:48:59.202,VIGILE,1,176.53,8.82,0.241,-0.795,2.842,-8.768,-0.207,0.087,-0.044,81.84,0.0,24.9,37,1,0
10:48:59.703,VIGILE,1,177.54,-0.22,0.233,-0.52,3.503,-9.543,-0.13,0.099,-0.008,81.84,0.0,24.9,37,1,0
10:49:00.203,VIGILE,1,176.24,4.74,0.261,-0.383,3.457,-9.555,-0.164,0.087,-0.019,81.84,0.0,24.9,37,1,0
10:49:00.703,VIGILE,1,174.83,5.29,0.24,0.024,3.074,-9.833,-0.173,0.068,-0.034,81.84,0.0,24.9,37,1,0
10:49:01.203,VIGILE,1,174.79,2.74,0.24,-1.578,3.431,-9.634,0.005,0.038,0.016,81.84,0.0,24.9,37,1,0
10:49:01.703,VIGILE,1,175.24,-1.99,0.276,-0.97,3.428,-8.875,-0.111,0.063,-0.022,81.84,0.0,24.9,37,1,0
10:49:02.203,VIGILE,1,174.67,1.67,0.254,-0.745,3.548,-9.618,-0.119,0.048,-0.033,81.84,0.0,24.9,37,1,0
10:49:02.703,VIGILE,1,171.22,-0.71,0.135,-0.867,3.431,-8.973,-0.126,0.094,-0.016,81.84,0.0,24.9,37,1,0
10:49:03.203,VIGILE,1,172.71,1.11,0.256,-0.972,3.026,-9.433,-0.151,0.088,-0.037,81.84,0.0,24.9,37,1,0
10:49:03.703,VIGILE,1,175.32,3.05,0.234,-0.737,2.55,-9.392,-0.142,0.061,-0.015,81.84,0.0,24.9,37,1,0
10:49:04.203,VIGILE,1,177.25,-4.58,0.237,-0.503,2.993,-9.093,-0.141,0.073,-0.023,81.84,0.0,24.9,37,1,0
10:49:04.703,VIGILE,1,176.12,-1.6,0.266,-0.838,3.529,-9.213,-0.107,0.048,-0.014,81.84,0.0,24.9,37,1,0
10:49:05.203,VIGILE,1,176.9,-6.42,0.253,-1.269,2.959,-9.218,-0.126,0.023,-0.01,81.84,0.0,24.9,37,1,0
10:49:05.703,VIGILE,1,175.9,-6.02,0.25,-0.402,3.175,-9.455,-0.134,0.034,-0.009,81.84,0.0,24.9,37,1,0
10:49:06.203,VIGILE,1,175.64,-3.82,0.272,-0.785,3.184,-8.887,-0.156,0.093,-0.037,81.84,0.0,24.9,37,1,0
10:49:06.703,VIGILE,1,176.78,-5.1,0.257,-1.104,2.794,-8.902,-0.148,0.082,-0.029,81.84,0.0,24.9,37,1,0
10:49:07.203,VIGILE,1,176.37,-4.84,0.248,-0.457,2.926,-9.732,-0.153,0.092,-0.02,81.84,0.0,24.9,37,1,0
10:49:07.704,VIGILE,1,175.08,-4.85,0.246,-0.503,2.789,-9.412,-0.124,0.063,-0.025,81.84,0.0,24.9,37,1,0
10:49:08.204,VIGILE,1,176.06,-6.77,0.269,-0.532,2.871,-9.586,-0.182,0.095,-0.025,81.84,0.0,24.9,37,1,1
10:49:08.704,VIGILE,1,176.07,-5.99,0.249,-1.231,2.758,-9.261,-0.132,0.096,-0.017,81.84,0.0,24.9,37,1,0
10:49:09.204,VIGILE,1,177.7,-5.91,0.249,-1.255,3.282,-9.629,-0.082,0.072,0.007,81.84,0.0,24.9,37,1,1
10:49:09.704,VIGILE,1,178.68,-9.01,0.245,-1.836,3.191,-8.897,-0.095,0.044,-0.007,81.84,0.0,24.9,37,1,0
10:49:10.204,VIGILE,1,175.88,-6.56,0.259,-0.855,2.959,-8.866,-0.134,0.043,-0.023,81.84,0.0,24.9,37,1,1
10:49:10.704,VIGILE,1,178.27,-11.07,0.195,-1.733,3.452,-8.878,-0.122,0.095,-0.017,81.84,0.0,24.9,37,1,1
10:49:11.204,VIGILE,1,178.09,-9.53,0.232,-0.986,3.031,-9.062,-0.062,0.068,-0.006,81.84,0.0,24.9,37,1,1
10:49:11.704,VIGILE,1,175.25,-1.29,0.254,-1.381,3.443,-8.744,-0.169,0.075,-0.029,81.84,0.0,24.9,37,1,1
10:49:12.204,VIGILE,1,176.89,-5.57,0.244,-1.01,3.587,-8.768,-0.16,0.084,-0.027,81.84,0.0,24.9,37,1,1
10:49:12.704,VIGILE,1,177.99,-4.54,0.241,-0.788,3.618,-9.44,-0.122,0.026,-0.001,81.84,0.0,24.9,37,1,1
10:49:13.205,VIGILE,1,177.57,-7.16,0.235,-1.913,3.254,-9.512,-0.12,0.099,-0.002,81.84,0.0,24.9,37,1,1
10:49:13.705,VIGILE,1,175.82,-3.21,0.238,-1.432,3.606,-9.306,-0.116,0.059,-0.009,81.84,0.0,24.8,36,1,1
10:49:14.205,VIGILE,1,176.25,-1.74,0.233,-1.295,3.249,-8.746,-0.156,0.092,-0.043,81.84,0.0,24.8,36,1,1
10:49:14.705,VIGILE,1,176.35,-5.05,0.25,-1.358,3.266,-8.909,-0.089,0.056,0.001,81.84,0.0,24.8,36,1,1
10:49:15.205,VIGILE,1,177.84,-5.27,0.233,-1.607,3.713,-8.255,-0.11,0.061,0.021,81.84,0.0,24.8,36,1,1
10:49:15.705,VIGILE,1,177.18,-7.3,0.243,-1.403,3.567,-8.868,-0.098,0.015,-0.015,81.84,0.0,24.8,36,1,1
10:49:16.205,VIGILE,1,176.09,-3.48,0.249,-2.308,3.709,-8.332,-0.199,0.089,-0.007,81.84,0.0,24.8,36,1,1
10:49:16.705,VIGILE,1,178.85,-5.0,0.248,-0.242,2.272,-5.71,-0.321,-0.023,-0.082,81.84,0.0,24.8,36,1,1
10:49:17.205,VIGILE,1,-179.58,-10.37,0.158,-0.895,3.855,-9.079,-0.216,0.019,-0.036,81.84,0.0,24.8,36,1,1
10:49:17.705,VIGILE,1,176.5,-2.37,0.07,-1.106,3.548,-8.487,-0.137,0.044,-0.016,81.84,0.0,24.8,36,1,1
10:49:18.205,VIGILE,1,177.67,3.82,0.236,-1.427,2.626,-9.206,-0.1,0.047,-0.016,81.84,0.0,24.8,36,1,1
10:49:18.705,VIGILE,1,177.99,2.92,0.226,-1.159,4.032,-9.1,-0.124,0.076,0.003,81.84,0.0,24.8,36,1,1
10:49:19.205,VIGILE,1,-178.08,26.31,0.282,-0.821,4.24,-8.353,-0.158,0.057,0.041,81.84,0.0,24.8,36,1,1
10:49:19.705,VIGILE,1,-177.87,32.1,0.307,-0.776,5.875,-8.866,-0.067,-0.001,0.151,81.84,0.0,24.8,36,1,1
10:49:20.205,VIGILE,1,-173.55,30.31,0.304,-0.129,5.66,-7.587,-0.113,-0.019,0.201,81.84,0.0,24.8,36,1,1
10:49:20.706,VIGILE,1,-176.88,24.49,0.269,0.096,6.536,-8.114,-0.035,-0.04,0.266,81.84,0.0,24.8,36,1,1
10:49:21.206,VIGILE,1,179.79,20.28,0.142,-0.022,6.558,-8.868,-0.053,-0.009,0.273,81.84,0.0,24.8,36,1,1
10:49:21.706,VIGILE,1,179.18,13.82,0.211,-0.294,5.207,-8.133,-0.088,-0.01,0.203,81.84,0.0,24.8,36,1,1
10:49:22.206,VIGILE,1,-179.55,13.62,0.244,-0.52,3.905,-8.363,-0.126,0.017,0.067,81.84,0.0,24.8,36,1,1
10:49:22.706,VIGILE,1,177.42,-0.95,0.249,-0.807,3.309,-8.657,-0.14,0.068,-0.01,81.84,0.0,24.8,36,1,1
10:49:23.206,VIGILE,1,176.73,-5.22,0.23,-1.398,3.661,-8.983,-0.157,0.07,-0.022,81.84,0.0,24.8,36,1,1
10:49:23.706,VIGILE,1,178.1,-10.03,0.244,-1.269,3.488,-9.752,-0.146,0.083,-0.021,81.84,0.0,24.7,36,1,1
10:49:24.206,VIGILE,1,175.97,-9.24,0.23,-1.276,3.419,-9.388,-0.052,0.026,-0.021,81.84,0.0,24.7,36,1,1
10:49:24.706,VIGILE,1,175.11,-7.5,0.235,-1.966,2.909,-8.856,-0.134,0.052,-0.056,81.84,0.0,24.7,36,1,1
10:49:25.206,VIGILE,1,-178.22,-11.37,0.257,-1.051,3.326,-8.985,-0.171,0.116,-0.054,81.84,0.0,24.7,36,1,1
10:49:25.706,VIGILE,1,173.94,-4.25,0.248,-1.695,3.065,-10.324,-0.103,0.095,-0.071,81.84,0.0,24.7,36,1,1
10:49:26.206,VIGILE,1,179.58,31.78,0.221,-1.982,3.201,-8.787,-0.078,0.074,-0.084,81.84,0.0,24.8,36,1,1
10:49:26.706,VIGILE,1,-176.55,41.43,0.299,-1.645,3.11,-9.668,-0.082,0.043,-0.061,81.84,0.0,24.8,36,1,1
10:49:27.206,VIGILE,1,-171.4,36.32,0.274,-1.346,3.179,-9.443,-0.101,0.032,-0.066,81.84,0.0,24.8,36,1,1
10:49:27.706,VIGILE,1,-173.28,33.39,0.265,-1.674,3.053,-8.878,-0.145,0.089,-0.061,81.84,0.0,24.8,36,1,1
10:49:28.206,DISTRAZIONE,1,-179.49,41.75,0.361,-1.221,3.912,-9.12,-0.14,0.088,0.014,81.84,0.0,24.8,36,1,1
10:49:28.707,DISTRAZIONE,1,-170.13,58.99,0.421,-0.915,3.132,-8.892,-0.103,0.066,-0.021,81.84,0.0,24.8,36,1,1
10:49:29.207,DISTRAZIONE,1,-174.21,31.89,0.269,-0.469,2.574,-9.498,-0.128,0.089,-0.065,81.84,0.0,24.8,36,1,1
10:49:29.707,DISTRAZIONE,1,-171.08,30.28,0.138,-0.781,3.469,-9.108,-0.16,0.071,-0.007,81.84,0.0,24.8,36,1,1
10:49:30.207,DISTRAZIONE,1,-166.65,32.78,0.278,-0.797,3.34,-9.316,-0.08,0.031,0.019,81.84,0.0,24.8,36,1,1
10:49:30.707,DISTRAZIONE,1,-172.59,-15.07,0.291,-0.706,3.096,-8.911,-0.162,0.072,-0.015,81.84,0.0,24.8,36,1,1
10:49:31.207,DISTRAZIONE,1,-169.47,30.17,0.283,-0.158,2.796,-9.431,-0.156,0.082,-0.035,81.84,0.0,24.9,36,1,1
10:49:31.707,DISTRAZIONE,1,-167.55,34.97,0.168,-0.972,2.713,-9.103,-0.128,0.093,-0.05,81.84,0.0,24.9,36,1,1
10:49:32.207,DISTRAZIONE,1,-159.94,35.22,0.338,-0.541,2.892,-9.251,-0.115,0.126,-0.051,81.84,0.0,24.9,36,1,1
10:49:32.707,DISTRAZIONE,1,-148.94,14.54,0.127,-0.639,1.875,-9.122,-0.142,0.1,-0.013,81.84,0.0,24.9,36,1,1
10:49:33.207,DISTRAZIONE,0,0.0,0.0,0.0,-0.153,3.067,-9.189,-0.174,0.122,-0.027,81.84,0.0,24.9,36,1,1
10:49:33.707,DISTRAZIONE,1,-173.38,-31.98,0.307,0.426,2.586,-9.754,-0.202,0.092,-0.013,81.84,0.0,24.9,36,1,1
10:49:34.207,DISTRAZIONE,1,-175.66,-30.4,0.326,-0.113,2.732,-8.408,-0.233,0.137,-0.088,81.84,0.0,24.9,36,1,1
10:49:34.707,DISTRAZIONE,1,-178.43,-44.07,0.372,-0.371,2.126,-8.909,-0.152,0.109,-0.073,81.84,0.0,24.9,36,1,1
10:49:35.207,DISTRAZIONE,1,177.75,-32.63,0.295,-0.318,3.575,-9.297,-0.145,0.075,0.006,81.84,0.0,24.9,36,1,1
10:49:35.707,DISTRAZIONE,1,179.28,-30.01,0.298,-0.603,3.302,-9.256,-0.1,0.038,0.0,81.84,0.0,24.9,36,1,1
10:49:36.208,DISTRAZIONE,1,-178.77,-26.21,0.167,-0.922,3.917,-9.242,-0.161,0.067,0.062,81.84,0.0,25.0,35,1,1
10:49:36.708,DISTRAZIONE,1,176.28,-30.74,0.282,-0.828,3.273,-9.096,-0.14,0.067,0.053,81.84,0.0,25.0,35,1,1
10:49:37.208,DISTRAZIONE,1,174.89,-32.92,0.302,-1.477,2.641,-9.239,-0.288,0.191,-0.124,81.84,0.0,25.0,35,1,1
10:49:37.708,DISTRAZIONE,1,-178.97,-36.11,0.309,-1.152,2.358,-8.887,-0.181,0.096,-0.089,81.84,0.0,25.0,35,1,1
10:49:38.208,DISTRAZIONE,1,-177.18,-33.98,0.242,-0.9,3.572,-9.242,-0.162,0.076,-0.007,81.84,0.0,25.0,35,1,1
10:49:38.708,DISTRAZIONE,1,-177.93,-22.71,0.254,-1.099,3.134,-9.335,-0.124,0.092,-0.018,81.84,0.0,25.0,35,1,1
10:49:39.208,DISTRAZIONE,1,178.4,-40.83,0.329,-1.204,1.104,-9.38,-0.137,0.109,-0.16,81.84,0.0,25.0,35,1,1
10:49:39.708,DISTRAZIONE,1,-179.33,-34.6,0.324,-1.463,1.939,-10.044,-0.135,0.179,-0.156,81.84,0.0,25.0,35,1,1
10:49:40.208,DISTRAZIONE,1,-179.32,-26.46,0.26,0.079,3.555,-9.22,-0.274,0.109,-0.09,81.84,0.0,25.0,35,1,1
10:49:40.708,DISTRAZIONE,0,0.0,0.0,0.0,-0.215,3.886,-8.643,-0.086,0.037,0.035,81.84,0.0,25.0,35,1,1
10:49:41.208,DISTRAZIONE,1,-177.27,-33.04,0.26,-0.397,3.871,-8.823,-0.149,0.054,0.016,81.84,0.0,25.1,35,1,1
10:49:41.708,DISTRAZIONE,1,179.86,-35.22,0.339,-0.869,3.091,-9.222,-0.106,0.073,-0.002,81.84,0.0,25.1,35,1,1
10:49:42.208,DISTRAZIONE,1,-179.08,-38.08,0.342,-1.039,3.407,-9.311,-0.077,0.067,-0.027,81.84,0.0,25.1,35,1,1
10:49:42.708,DISTRAZIONE,1,-179.74,-27.81,0.27,-1.374,2.914,-9.359,-0.127,0.083,-0.092,81.84,0.0,25.1,35,1,1
10:49:43.208,DISTRAZIONE,1,-179.41,18.43,0.228,-0.345,2.579,-9.203,-0.124,0.123,-0.055,81.84,0.0,25.1,35,1,1
10:49:43.708,VIGILE,1,168.06,3.66,0.218,-0.364,3.103,-9.967,-0.167,0.092,-0.034,81.84,0.0,25.1,35,1,1
10:49:44.208,VIGILE,1,171.67,-2.08,0.183,-0.773,3.225,-9.342,-0.138,0.068,-0.05,81.84,0.0,25.1,35,1,1
10:49:44.709,VIGILE,1,170.62,-3.09,0.231,-0.601,2.998,-9.043,-0.161,0.073,-0.034,81.84,0.0,25.1,35,1,1
10:49:45.209,VIGILE,1,172.0,-7.45,0.242,-1.152,2.756,-9.203,-0.184,0.108,-0.054,81.84,0.0,25.1,35,1,1
10:49:45.709,VIGILE,1,175.85,-11.56,0.207,-1.693,2.593,-9.754,-0.135,0.065,-0.096,81.84,0.0,25.1,35,1,1
10:49:46.209,VIGILE,1,172.68,-9.39,0.206,-1.204,2.586,-8.406,-0.181,0.075,-0.104,81.84,0.0,25.2,35,1,1
10:49:46.709,VIGILE,1,174.58,-9.24,0.21,-1.36,2.55,-9.27,-0.178,0.133,-0.119,81.84,0.0,25.2,35,1,1
10:49:47.209,VIGILE,1,174.49,-6.59,0.225,-1.475,3.357,-9.076,-0.075,0.097,-0.1,81.84,0.0,25.2,35,1,1
10:49:47.709,VIGILE,1,174.53,-8.03,0.225,-1.834,1.872,-8.947,-0.209,0.107,-0.112,81.84,0.0,25.2,35,1,1
10:49:48.209,VIGILE,1,176.86,-8.5,0.245,-1.14,2.995,-8.818,-0.158,0.115,-0.097,81.84,0.0,25.2,35,1,1
10:49:48.709,VIGILE,1,175.18,-4.73,0.248,-1.123,2.622,-8.964,-0.137,0.122,-0.074,81.84,0.0,25.2,35,1,1
10:49:49.209,VIGILE,1,177.24,-5.41,0.228,-1.726,3.713,-8.933,-0.095,0.037,-0.035,81.84,0.0,25.2,35,1,1
10:49:49.709,VIGILE,1,174.01,-1.09,0.225,-0.658,3.134,-9.12,-0.15,0.091,-0.039,81.84,0.0,25.2,35,1,1
10:49:50.209,VIGILE,1,173.25,-3.59,0.24,-0.895,3.01,-8.832,-0.176,0.064,-0.026,81.84,0.0,25.2,35,1,1
10:49:50.709,VIGILE,1,170.8,-2.38,0.253,-1.219,3.644,-9.282,-0.11,0.067,-0.012,81.84,0.0,25.2,35,1,1
10:49:51.209,VIGILE,1,168.66,-1.3,0.113,-1.24,3.136,-9.366,-0.106,0.059,-0.015,81.84,0.0,25.3,35,1,1
10:49:51.710,VIGILE,1,171.93,-4.89,0.236,-0.338,3.235,-9.852,-0.081,0.059,-0.007,81.84,0.0,25.3,35,1,1
10:49:52.210,VIGILE,1,176.13,-6.98,0.293,-0.903,3.172,-9.23,-0.142,0.084,-0.025,81.84,0.0,25.3,35,1,1
10:49:52.710,VIGILE,1,175.6,1.7,0.29,-1.427,3.385,-8.993,-0.125,0.091,-0.02,81.84,0.0,25.3,35,1,1
10:49:53.210,VIGILE,1,175.17,-7.63,0.231,-1.041,2.885,-9.931,-0.112,0.045,-0.011,81.84,0.0,25.3,35,1,1
10:49:53.710,VIGILE,1,175.72,-8.53,0.23,-1.046,2.758,-8.887,-0.162,0.069,-0.062,81.84,0.0,25.4,35,1,1
10:49:54.210,VIGILE,1,177.19,-8.73,0.228,-1.623,3.536,-10.036,-0.078,0.058,-0.028,81.84,0.0,25.4,35,1,1
10:49:54.710,VIGILE,1,175.66,-9.9,0.104,-1.168,3.122,-9.409,-0.121,0.078,-0.046,81.84,0.0,25.4,35,1,1
10:49:55.210,VIGILE,1,174.54,-8.08,0.184,-1.415,2.875,-9.316,-0.144,0.084,-0.061,81.84,0.0,25.4,35,1,1
10:49:55.710,VIGILE,1,172.82,-6.01,0.248,-1.018,3.223,-9.668,-0.109,0.052,-0.05,81.84,0.0,25.4,35,1,1
10:49:56.210,VIGILE,1,174.2,-8.06,0.21,-0.388,2.82,-9.373,-0.144,0.095,-0.045,81.84,0.0,25.4,35,1,1
10:49:56.710,VIGILE,1,176.06,-9.54,0.232,-1.176,3.292,-8.916,-0.114,0.062,-0.027,81.84,0.0,25.4,35,1,1
10:49:57.210,VIGILE,1,173.59,-4.41,0.23,-1.183,2.916,-9.031,-0.156,0.075,-0.019,81.84,0.0,25.4,35,1,1
10:49:57.710,VIGILE,1,174.05,-2.72,0.288,-1.343,3.091,-8.835,-0.157,0.066,-0.029,81.84,0.0,25.4,35,1,1
10:49:58.210,VIGILE,1,170.64,-2.16,0.253,-1.077,3.541,-8.492,-0.134,0.058,-0.012,81.84,0.0,25.4,35,1,1
10:49:58.710,VIGILE,1,171.23,-2.35,0.25,-1.176,3.486,-9.088,-0.127,0.072,-0.007,81.84,0.0,25.5,34,1,1
10:49:59.210,VIGILE,1,172.57,-3.39,0.239,-1.255,3.263,-9.194,-0.157,0.088,-0.017,81.84,0.0,25.5,34,1,1
10:49:59.711,VIGILE,1,171.57,-2.48,0.242,-0.764,3.357,-8.631,-0.127,0.05,-0.028,81.84,0.0,25.5,34,1,1
10:50:00.211,VIGILE,1,175.19,-3.15,0.237,-1.3,3.175,-9.232,-0.107,0.061,-0.006,81.84,0.0,25.5,34,1,1
10:50:00.711,VIGILE,1,172.13,-2.55,0.243,-1.14,3.4,-9.036,-0.155,0.068,-0.01,81.84,0.0,25.5,34,1,1
10:50:01.211,VIGILE,1,171.33,-0.92,0.234,-0.941,3.136,-8.349,-0.155,0.099,0.0,81.84,0.0,25.6,34,1,1
10:50:01.711,VIGILE,1,172.12,-1.43,0.197,-1.001,3.912,-9.421,-0.073,0.086,0.003,81.84,0.0,25.6,34,1,1
10:50:02.211,VIGILE,1,173.16,1.35,0.237,-1.614,3.728,-9.007,-0.136,0.078,0.014,81.84,0.0,25.6,34,1,1
10:50:02.711,VIGILE,1,176.86,-3.71,0.242,-1.908,3.701,-8.217,-0.147,0.059,0.022,81.84,0.0,25.6,34,1,1
10:50:03.211,VIGILE,1,176.5,-1.9,0.253,-1.317,4.152,-8.818,-0.109,0.016,0.041,81.84,0.0,25.6,34,1,1
10:50:03.711,VIGILE,1,179.59,-6.48,0.266,-0.943,3.831,-9.232,-0.103,0.064,0.072,81.84,0.0,25.7,34,1,1
10:50:04.211,VIGILE,1,179.55,-14.7,0.256,-0.929,4.262,-8.344,-0.085,0.013,0.076,81.84,0.0,25.7,34,1,1
10:50:04.711,VIGILE,0,0.0,0.0,0.0,-1.068,3.926,-9.038,-0.108,0.031,0.076,81.84,0.0,25.7,34,1,1
10:50:05.211,VIGILE,1,170.9,-33.29,0.395,-1.899,4.219,-8.657,-0.106,-0.001,0.096,81.84,0.0,25.7,34,1,1
10:50:05.711,VIGILE,1,172.71,-29.62,0.26,-3.139,4.621,-8.349,-0.143,0.064,0.07,81.84,0.0,25.7,34,1,1
10:50:06.211,VIGILE,1,178.89,-11.58,0.272,-4.058,4.334,-8.375,-0.102,0.022,0.025,81.84,0.0,25.8,34,1,1
10:50:06.712,VIGILE,1,-177.05,-1.33,0.236,-2.38,3.788,-8.282,-0.13,0.081,0.011,81.84,0.0,25.8,34,1,1
10:50:07.212,VIGILE,1,-174.23,12.23,0.294,-1.018,3.211,-8.789,-0.123,0.052,0.006,81.84,0.0,25.8,34,1,1
10:50:07.712,VIGILE,1,-178.5,32.74,0.229,0.546,2.722,-8.76,-0.179,0.072,0.006,81.84,0.0,25.8,34,1,1
10:50:08.212,VIGILE,1,-177.4,27.94,0.259,1.518,2.679,-10.355,-0.033,0.022,0.067,81.84,0.0,25.8,34,1,1
10:50:08.712,VIGILE,1,-178.86,27.2,0.253,1.025,3.886,-8.823,-0.021,-0.042,0.113,81.84,0.0,25.9,34,1,1
10:50:09.212,VIGILE,1,-178.85,23.08,0.235,1.441,2.55,-9.641,-0.216,0.088,0.185,81.84,0.0,25.9,34,1,1
10:50:09.712,VIGILE,1,-176.97,30.19,0.291,1.199,4.496,-9.143,-0.135,0.021,0.189,81.84,0.0,25.9,34,1,1
10:50:10.212,VIGILE,1,176.3,33.37,0.233,0.266,4.096,-9.088,-0.106,-0.077,0.25,81.84,0.0,25.9,34,1,1
10:50:10.712,VIGILE,1,177.44,33.86,0.292,0.316,4.779,-8.284,-0.082,-0.059,0.29,81.84,0.0,25.9,34,1,1
10:50:11.212,VIGILE,1,176.46,34.4,0.307,-0.431,5.875,-8.274,-0.113,-0.074,0.341,81.84,0.0,25.9,34,1,1
10:50:11.712,VIGILE,1,179.22,29.93,0.297,-0.603,5.145,-8.119,-0.042,-0.094,0.432,81.84,0.0,25.9,34,1,1
10:50:12.212,VIGILE,1,-178.03,19.52,0.27,0.249,6.244,-8.432,-0.089,-0.049,0.422,81.84,0.0,25.9,34,1,1
10:50:12.713,VIGILE,1,178.21,-14.63,0.284,1.319,5.097,-8.715,-0.112,-0.077,0.415,81.84,0.0,25.9,34,1,1
10:50:13.213,VIGILE,1,174.66,-6.39,0.225,0.251,3.244,-9.139,-0.033,-0.06,0.282,81.84,516.5,25.9,34,1,1
10:50:13.713,VIGILE,1,174.28,-9.08,0.267,-0.177,2.935,-9.677,-0.151,0.029,0.08,81.84,67.36,26.0,34,1,1
10:50:14.213,VIGILE,1,173.59,-4.85,0.11,0.079,2.796,-9.493,-0.256,0.087,-0.015,81.84,28.8,26.0,34,1,1
10:50:14.713,VIGILE,1,173.65,-5.29,0.031,-0.436,2.875,-9.4,-0.106,0.019,-0.03,81.84,29.87,26.0,34,1,1
10:50:15.213,VIGILE,1,177.9,-8.36,0.218,-1.034,2.935,-8.923,-0.145,0.066,0.013,81.84,80.61,26.0,34,1,1
10:50:15.713,VIGILE,1,177.5,-12.73,0.273,-1.276,3.0,-9.017,-0.152,0.044,0.015,81.84,377.72,26.0,34,1,1
10:50:16.213,VIGILE,1,179.4,-19.81,0.212,0.34,2.1,-9.701,-0.181,0.11,-0.054,81.84,0.0,26.0,34,1,1
10:50:16.713,VIGILE,1,169.54,-3.2,0.058,-0.9,3.103,-8.988,-0.15,0.087,-0.035,81.84,0.0,26.0,34,1,1
10:50:17.213,SONNOLENZA,1,178.06,-7.54,0.053,0.18,3.306,-8.947,-0.164,0.086,-0.017,81.84,0.0,26.0,34,1,1
10:50:17.713,SONNOLENZA,1,178.7,-5.8,0.212,0.232,2.521,-9.495,-0.187,0.091,-0.012,81.84,0.0,26.0,34,1,1
10:50:18.213,SONNOLENZA,1,177.51,-11.44,0.199,-0.424,2.849,-9.476,-0.088,0.057,0.015,81.84,0.0,26.0,34,1,1
10:50:18.713,SONNOLENZA,1,174.81,-9.82,0.074,-0.481,2.727,-8.554,-0.13,0.065,-0.024,81.84,0.0,25.9,34,1,1
10:50:19.213,SONNOLENZA,1,176.55,-9.99,0.052,-1.077,2.962,-9.141,-0.116,0.037,-0.015,81.84,0.0,25.9,34,1,1
10:50:19.714,SONNOLENZA,1,179.29,-11.45,0.259,-1.094,3.464,-9.031,-0.194,0.064,-0.033,81.84,0.0,25.9,34,1,1
10:50:20.214,SONNOLENZA,1,178.98,-10.3,0.045,-0.711,2.734,-9.452,-0.111,0.066,-0.02,81.84,0.0,25.9,34,1,1
10:50:20.714,SONNOLENZA,1,171.83,-4.17,0.084,-0.543,2.751,-8.978,-0.2,0.104,-0.025,81.84,0.0,25.9,34,1,1
10:50:21.214,SONNOLENZA,1,-178.62,-12.24,0.223,0.105,2.998,-8.071,-0.169,0.145,-0.023,81.84,0.0,25.9,34,1,1
10:50:21.714,SONNOLENZA,1,174.79,-7.62,0.227,-0.414,3.388,-7.683,-0.126,0.035,-0.064,81.84,0.0,25.9,34,1,1
10:50:22.214,SONNOLENZA,1,-178.43,-13.1,0.058,0.048,2.073,-8.25,-0.183,0.173,-0.002,81.84,0.0,25.9,34,1,1
10:50:22.714,SONNOLENZA,1,-176.4,-16.87,0.104,-0.567,2.523,-9.486,-0.173,0.126,-0.024,81.84,0.0,25.9,34,1,1
10:50:23.214,SONNOLENZA,1,-176.35,-17.43,0.264,-0.12,3.098,-9.278,-0.104,0.057,-0.021,81.84,0.0,25.9,34,1,1
10:50:23.714,SONNOLENZA,1,-176.61,-19.03,0.257,0.881,3.785,-10.044,-0.145,0.002,-0.069,81.84,0.0,26.0,34,1,1
10:50:24.214,SONNOLENZA,1,179.11,-13.54,0.219,-0.527,2.866,-8.796,-0.212,0.104,-0.026,81.84,0.0,26.0,34,1,1
10:50:24.714,SONNOLENZA,1,177.89,-14.02,0.249,-1.262,2.715,-9.084,-0.156,0.055,-0.016,81.84,0.0,26.0,34,1,1
10:50:25.214,SONNOLENZA,1,177.38,-13.26,0.172,-0.328,2.449,-9.055,-0.192,0.087,-0.063,81.84,0.0,26.0,34,1,1
10:50:25.715,SONNOLENZA,1,175.71,-13.73,0.096,-0.924,2.725,-9.459,-0.104,0.111,-0.098,81.84,0.0,26.0,34,1,1
10:50:26.215,SONNOLENZA,1,176.31,-10.36,0.244,-0.716,2.229,-9.498,-0.133,0.104,-0.111,81.84,0.0,26.0,34,1,1
10:50:26.715,SONNOLENZA,1,177.6,10.28,0.236,-1.501,3.302,-9.912,-0.072,0.104,-0.101,81.84,0.0,26.0,34,1,1
10:50:27.215,SONNOLENZA,1,179.83,-2.91,0.217,-0.381,2.576,-9.019,-0.196,0.124,-0.111,81.84,0.0,26.0,34,1,1
10:50:27.715,SONNOLENZA,1,178.28,-5.7,0.215,-0.122,1.492,-9.838,-0.175,0.049,-0.088,81.84,0.0,26.0,34,1,1
10:50:28.215,SONNOLENZA,1,174.45,-2.98,0.035,-1.516,3.321,-9.17,-0.114,0.049,-0.043,81.84,0.0,26.0,34,1,1
10:50:28.715,SONNOLENZA,1,179.0,-4.35,0.107,-0.373,3.809,-10.319,-0.244,0.083,0.005,81.84,0.0,26.0,34,1,1
10:50:29.215,SONNOLENZA,1,175.79,-9.27,0.096,-1.772,3.304,-9.297,-0.159,0.049,-0.075,81.84,0.0,26.0,34,1,1
10:50:29.715,SONNOLENZA,1,178.98,-8.35,0.247,-0.345,2.947,-9.242,-0.142,0.063,-0.029,81.84,0.0,26.0,34,1,1
10:50:30.215,SONNOLENZA,1,-179.16,-14.48,0.235,-0.668,2.507,-9.342,-0.133,0.082,-0.052,81.84,0.0,26.0,34,1,1
10:50:30.715,SONNOLENZA,1,-168.42,-11.5,0.082,-1.223,2.777,-8.978,-0.144,0.05,-0.035,81.84,0.0,26.0,34,1,1
10:50:31.215,SONNOLENZA,1,-155.69,-23.47,0.227,-1.623,3.041,-8.873,-0.106,0.097,-0.021,81.84,0.0,26.0,33,1,1
10:50:31.715,SONNOLENZA,1,-178.89,-18.92,0.315,-1.736,3.685,-9.385,-0.107,0.043,-0.02,81.84,0.0,26.0,33,1,1
10:50:32.215,SONNOLENZA,1,-176.99,-15.04,0.264,-1.595,2.959,-9.364,-0.17,0.085,-0.01,81.84,0.0,26.0,33,1,1
10:50:32.716,SONNOLENZA,1,-171.55,-13.9,0.152,-0.761,2.969,-9.249,-0.166,0.074,-0.022,81.84,0.0,26.0,33,1,1
10:50:33.216,SONNOLENZA,1,-159.66,14.6,0.258,-1.125,2.811,-9.041,-0.121,0.081,-0.021,81.84,0.0,26.0,33,1,1
10:50:33.716,SONNOLENZA,1,-156.44,-18.38,0.304,-1.039,3.656,-9.301,-0.103,0.065,-0.025,81.84,0.0,26.0,33,1,1
10:50:34.216,SONNOLENZA,1,-176.83,-1.38,0.199,-0.876,3.28,-9.366,-0.113,0.065,-0.023,81.84,0.0,26.0,33,1,1
10:50:34.716,SONNOLENZA,1,173.7,-5.51,0.236,-0.862,3.395,-8.892,-0.141,0.067,-0.022,81.84,0.0,26.0,33,1,1
10:50:35.216,SONNOLENZA,1,-178.88,-9.0,0.089,-0.711,3.084,-9.304,-0.118,0.064,-0.008,81.84,0.0,26.0,33,1,1
10:50:35.716,SONNOLENZA,1,-177.92,11.16,0.208,-0.421,3.129,-10.336,0.051,0.007,-0.033,81.84,0.0,26.0,33,1,1
10:50:36.216,SONNOLENZA,1,-154.11,-11.73,0.125,-0.342,2.758,-8.461,-0.475,0.166,-0.084,81.84,0.0,26.0,33,1,1
10:50:36.716,SONNOLENZA,1,-163.2,-31.15,0.31,-0.907,3.033,-9.043,-0.14,0.081,-0.006,81.84,0.0,26.0,33,1,1
10:50:37.216,SONNOLENZA,1,-139.9,-11.87,0.122,0.843,3.706,-7.195,-0.33,-0.088,0.062,81.84,0.0,26.0,33,1,1
10:50:37.716,SONNOLENZA,0,0.0,0.0,0.0,-0.39,4.008,-7.867,-0.097,0.184,-0.024,81.84,0.0,26.0,33,1,1
10:50:38.216,SONNOLENZA,1,178.05,-6.04,0.264,-1.25,3.412,-8.961,-0.045,0.014,0.015,81.84,0.0,26.0,33,1,1
10:50:38.716,SONNOLENZA,1,174.29,-6.27,0.254,-0.642,2.825,-9.213,-0.177,0.086,-0.025,81.84,0.0,26.0,33,1,1
10:50:39.217,SONNOLENZA,1,176.0,-14.65,0.239,-0.869,2.799,-9.131,-0.118,0.072,-0.016,81.84,0.0,26.0,33,1,1
10:50:39.717,SONNOLENZA,1,175.22,-3.33,0.27,-1.448,3.481,-9.323,-0.118,0.076,-0.027,81.84,0.0,26.0,33,1,1
10:50:40.217,VIGILE,1,170.48,-1.81,0.143,-1.331,3.309,-9.299,-0.12,0.067,-0.011,81.84,0.0,26.0,33,1,1
10:50:40.717,VIGILE,1,171.33,-3.51,0.153,-1.448,3.519,-8.894,-0.137,0.042,-0.005,81.84,0.0,26.0,33,1,1
10:50:41.217,VIGILE,1,174.15,-4.23,0.156,-1.018,3.318,-8.854,-0.153,0.099,-0.018,81.84,0.0,26.0,33,1,1
10:50:41.717,VIGILE,1,172.8,-3.67,0.24,-0.814,2.887,-9.34,-0.098,0.092,-0.013,81.84,0.0,26.0,33,1,1
10:50:42.217,VIGILE,1,174.36,-4.14,0.259,-0.541,2.813,-8.952,-0.175,0.087,-0.033,81.84,0.0,26.0,33,1,1
10:50:42.717,VIGILE,1,173.91,-3.98,0.247,-1.166,2.806,-9.675,-0.059,0.037,0.0,81.84,0.0,26.0,33,1,1
10:50:43.217,VIGILE,1,177.49,-7.18,0.249,-1.597,3.244,-9.543,-0.091,0.067,-0.013,81.84,0.0,26.0,33,1,1
10:50:43.717,VIGILE,1,175.86,-3.27,0.233,-1.015,3.237,-9.072,-0.159,0.048,-0.009,81.84,0.0,26.0,33,1,1
10:50:44.217,VIGILE,1,175.64,-4.47,0.216,-1.082,3.05,-9.012,-0.148,0.09,-0.015,81.84,0.0,26.0,33,1,1
10:50:44.717,VIGILE,1,177.26,-5.28,0.229,-1.484,2.77,-9.052,-0.088,0.065,-0.005,81.84,0.0,26.0,33,1,1
10:50:45.217,VIGILE,1,-179.86,2.66,0.246,-1.264,3.158,-8.966,-0.17,0.068,-0.017,81.84,0.0,26.0,33,1,1
10:50:45.717,VIGILE,1,177.44,-2.65,0.256,-0.97,3.563,-8.832,-0.136,0.077,-0.019,81.84,0.0,26.0,33,1,1
10:50:46.217,VIGILE,1,174.51,-4.99,0.262,-0.591,3.206,-9.093,-0.151,0.063,-0.02,81.84,0.0,26.0,33,1,1
10:50:46.717,VIGILE,1,175.58,-5.11,0.27,-1.688,3.675,-9.306,-0.088,0.051,-0.005,81.84,0.0,26.0,33,1,1
10:50:47.218,VIGILE,1,175.66,-8.85,0.24,-1.417,3.397,-9.266,-0.135,0.044,-0.022,81.84,0.0,26.0,33,1,1
10:50:47.718,VIGILE,1,174.79,-8.4,0.242,-2.021,3.498,-8.679,-0.139,0.059,-0.01,81.84,0.0,26.0,33,1,1
10:50:48.218,VIGILE,1,168.92,-1.79,0.218,-2.547,3.508,-8.885,-0.112,0.066,-0.002,81.84,0.0,26.0,33,1,1
10:50:48.718,VIGILE,1,169.57,-1.42,0.123,-2.964,3.953,-8.708,-0.231,0.082,-0.041,81.84,0.0,26.1,33,1,1
10:50:49.218,VIGILE,1,170.17,0.18,0.242,-4.01,4.334,-8.406,-0.122,0.047,-0.023,81.84,0.0,26.1,33,1,1
10:50:49.718,VIGILE,1,175.08,5.0,0.244,-3.639,4.12,-8.061,-0.183,0.055,-0.03,81.84,0.0,26.1,33,1,1
10:50:50.218,VIGILE,1,177.13,6.16,0.239,-3.792,4.42,-8.229,-0.137,0.072,-0.03,81.84,0.0,26.1,33,1,1
10:50:50.718,VIGILE,1,176.35,-0.64,0.256,-3.472,3.953,-8.183,-0.121,0.069,-0.022,81.84,0.0,26.1,33,1,1
10:50:51.218,VIGILE,1,173.01,26.16,0.124,-0.986,3.122,-9.21,-0.133,0.079,-0.016,81.84,0.0,26.1,33,1,1
10:50:51.718,VIGILE,1,162.34,-5.23,0.089,-0.929,3.213,-9.227,-0.131,0.064,-0.02,81.84,0.0,26.1,33,1,1
10:50:52.218,VIGILE,1,161.41,-4.25,0.067,-0.819,3.043,-9.177,-0.132,0.06,-0.02,81.84,0.0,26.1,33,1,1
10:50:52.718,VIGILE,1,161.99,-7.77,0.093,-0.867,2.938,-9.22,-0.129,0.067,-0.015,81.84,0.0,26.1,33,1,1
10:50:53.218,MALORE,1,162.33,-8.8,0.076,-1.022,2.899,-9.05,-0.139,0.063,-0.018,81.84,0.0,26.1,33,1,1
10:50:53.718,MALORE,1,162.16,-7.45,0.07,-1.027,3.112,-9.373,-0.132,0.07,-0.019,81.84,0.0,26.1,33,1,1
10:50:54.218,MALORE,1,162.25,-8.5,0.054,-0.737,3.005,-9.163,-0.137,0.066,-0.019,81.84,0.0,26.1,33,1,1
10:50:54.718,MALORE,1,161.74,-5.98,0.07,-0.955,3.134,-9.227,-0.131,0.075,-0.025,81.84,0.0,26.1,33,1,1
10:50:55.218,MALORE,1,162.25,-7.9,0.076,-1.068,2.986,-9.158,-0.12,0.069,-0.015,81.84,0.0,26.1,33,1,1
10:50:55.719,MALORE,1,162.02,-7.8,0.064,-0.864,3.232,-9.249,-0.13,0.073,-0.016,81.84,0.0,26.1,33,1,1
10:50:56.219,MALORE,1,161.83,-7.97,0.067,-0.773,3.012,-9.105,-0.128,0.072,-0.015,81.84,0.0,26.1,33,1,1
10:50:56.719,MALORE,1,161.99,-9.29,0.107,-0.967,3.144,-9.081,-0.135,0.077,-0.026,81.84,0.0,26.1,33,1,1
10:50:57.219,MALORE,1,162.63,-9.55,0.076,-0.886,3.05,-9.246,-0.123,0.069,-0.021,81.84,0.0,26.1,33,1,1
10:50:57.719,MALORE,1,161.54,-8.3,0.092,-0.824,3.237,-9.175,-0.123,0.067,-0.019,81.84,0.0,26.1,33,1,1
10:50:58.219,MALORE,1,162.41,-9.79,0.107,-0.871,2.938,-8.976,-0.131,0.063,-0.017,81.84,0.0,26.1,33,1,1
10:50:58.719,MALORE,1,162.36,-9.2,0.092,-1.049,3.153,-9.124,-0.129,0.064,-0.019,81.84,0.0,26.2,33,1,1
10:50:59.219,MALORE,1,161.63,-9.32,0.087,-0.862,3.077,-9.213,-0.126,0.06,-0.015,81.84,0.0,26.2,33,1,1
10:50:59.719,MALORE,1,162.71,-10.49,0.098,-0.974,2.919,-8.966,-0.139,0.067,-0.016,81.84,0.0,26.2,33,1,1
10:51:00.219,MALORE,1,161.46,-10.14,0.094,-1.077,3.024,-9.246,-0.143,0.067,-0.021,81.84,0.0,26.2,33,1,1
10:51:00.719,MALORE,1,162.9,-9.45,0.106,-0.771,2.988,-9.158,-0.137,0.068,-0.022,81.84,0.0,26.2,33,1,1
10:51:01.219,MALORE,1,163.46,-10.49,0.104,-0.967,3.127,-9.1,-0.133,0.07,-0.021,81.84,0.0,26.2,33,1,1
10:51:01.719,MALORE,1,162.78,-10.56,0.08,-0.826,3.093,-9.163,-0.144,0.072,-0.023,81.84,0.0,26.2,33,1,1
10:51:02.219,MALORE,1,162.12,-11.25,0.084,-0.943,2.99,-8.904,-0.14,0.069,-0.019,81.84,0.0,26.2,33,1,1
10:51:02.719,MALORE,1,162.0,-10.66,0.086,-0.883,3.048,-9.268,-0.155,0.075,-0.023,81.84,0.0,26.2,33,1,1
10:51:03.219,MALORE,1,162.95,-10.38,0.107,-0.661,2.969,-9.12,-0.143,0.074,-0.026,81.84,0.0,26.2,33,1,1
10:51:03.720,MALORE,1,161.71,-10.5,0.098,-0.984,3.043,-9.072,-0.14,0.067,-0.019,81.84,0.0,26.2,33,1,1
10:51:04.220,MALORE,1,162.02,-11.16,0.103,-0.828,3.026,-9.239,-0.141,0.076,-0.019,81.84,0.0,26.2,33,1,1
10:51:04.720,MALORE,1,162.12,-12.12,0.089,-0.912,3.05,-8.945,-0.126,0.066,-0.011,81.84,0.0,26.2,33,1,1
10:51:05.220,MALORE,1,161.97,-12.34,0.113,-1.058,2.962,-9.153,-0.145,0.071,-0.017,81.84,0.0,26.2,33,1,1
10:51:05.720,MALORE,1,161.75,-12.34,0.122,-0.996,3.072,-9.122,-0.125,0.064,-0.017,81.84,0.0,26.2,33,1,1
10:51:06.220,MALORE,1,161.29,-12.89,0.117,-0.986,3.091,-9.1,-0.14,0.071,-0.02,81.84,0.0,26.3,33,1,1
10:51:06.720,MALORE,1,161.26,-13.49,0.132,-0.857,3.072,-9.268,-0.136,0.075,-0.021,81.84,0.0,26.3,33,1,1
10:51:07.220,MALORE,1,161.52,-12.88,0.11,-0.922,3.127,-8.928,-0.116,0.066,-0.014,81.84,0.0,26.3,33,1,1
10:51:07.720,MALORE,1,176.22,-47.35,0.258,-1.08,2.969,-9.141,-0.14,0.069,-0.021,81.84,0.0,26.3,33,1,1
10:51:08.220,MALORE,0,0.0,0.0,0.0,-0.879,3.089,-9.187,-0.135,0.074,-0.017,81.84,0.0,26.3,33,1,1
10:51:08.720,MALORE,0,0.0,0.0,0.0,-0.967,2.952,-9.079,-0.127,0.067,-0.02,81.84,0.0,26.3,33,1,1
10:51:09.220,MALORE,0,0.0,0.0,0.0,-1.087,3.122,-9.278,-0.126,0.069,-0.02,81.84,0.0,26.3,33,1,1
10:51:09.720,MALORE,0,0.0,0.0,0.0,-0.742,3.16,-9.136,-0.134,0.074,-0.015,81.84,0.0,26.3,33,1,1
10:51:10.220,MALORE,0,0.0,0.0,0.0,-0.855,2.969,-9.014,-0.14,0.075,-0.026,81.84,0.0,26.3,33,1,1
10:51:10.720,MALORE,0,0.0,0.0,0.0,-1.082,3.165,-9.136,-0.131,0.071,-0.016,81.84,0.0,26.3,33,1,1
10:51:11.221,MALORE,0,0.0,0.0,0.0,-0.994,2.959,-9.072,-0.136,0.076,-0.019,81.84,0.0,26.3,33,1,1
10:51:11.721,MALORE,0,0.0,0.0,0.0,-0.948,3.12,-9.208,-0.126,0.064,-0.02,81.84,0.0,26.3,33,1,1
10:51:12.221,MALORE,0,0.0,0.0,0.0,-0.977,2.928,-8.902,-0.139,0.072,-0.025,81.84,0.0,26.3,33,1,1
10:51:12.721,MALORE,0,0.0,0.0,0.0,-0.991,3.297,-9.292,-0.125,0.068,-0.021,81.84,0.0,26.3,33,1,1
10:51:13.221,MALORE,0,0.0,0.0,0.0,-1.025,3.002,-8.99,-0.134,0.07,-0.017,81.84,0.0,26.3,33,1,1
10:51:13.721,MALORE,0,0.0,0.0,0.0,-1.053,3.194,-9.062,-0.131,0.072,-0.025,81.84,0.0,26.4,33,1,1
10:51:14.221,MALORE,1,-157.57,-22.61,0.269,-0.972,2.978,-9.117,-0.124,0.072,-0.018,81.84,0.0,26.4,33,1,1
10:51:14.721,MALORE,1,-176.98,-11.55,0.257,-0.781,2.986,-9.139,-0.152,0.082,-0.022,81.84,0.0,26.4,33,1,1
10:51:15.221,MALORE,1,-178.1,-1.17,0.251,-0.984,3.129,-8.882,-0.133,0.072,-0.015,81.84,0.0,26.4,33,1,1
10:51:15.721,MALORE,1,-179.78,-9.06,0.25,-1.087,3.144,-9.335,-0.132,0.076,-0.022,81.84,0.0,26.4,33,1,1
10:51:16.221,MALORE,1,-176.44,8.07,0.271,0.745,2.83,-9.637,-0.042,0.058,-0.004,81.84,0.0,26.4,33,1,1
10:51:16.721,MALORE,1,-174.68,2.13,0.257,1.889,1.717,-9.459,-0.192,0.084,-0.026,81.84,0.0,26.4,33,1,1
10:51:17.221,MALORE,1,-176.56,8.44,0.232,-0.596,2.294,-10.022,-0.225,0.082,-0.021,81.84,0.0,26.4,33,1,1
10:51:17.721,MALORE,1,-176.6,3.44,0.276,1.549,1.832,-9.598,-0.037,0.031,0.005,81.84,0.0,26.4,33,1,1
10:51:18.221,MALORE,1,-176.81,10.8,0.255,1.954,2.851,-9.057,-0.117,0.027,0.089,81.84,0.0,26.4,33,1,1
10:51:18.721,VIGILE,1,-174.76,11.94,0.279,1.372,4.046,-9.426,-0.095,-0.02,0.195,81.84,0.0,26.5,33,1,1
10:51:19.222,VIGILE,1,-176.8,19.66,0.277,-0.615,4.513,-8.973,-0.052,-0.058,0.304,81.84,0.0,26.5,33,1,1
10:51:19.722,VIGILE,1,-177.83,1.42,0.264,0.278,5.758,-8.016,-0.225,0.031,0.357,81.84,0.0,26.5,33,1,1
10:51:20.222,VIGILE,1,-175.19,20.88,0.271,1.037,5.188,-8.578,-0.238,-0.062,0.312,81.84,0.0,26.5,33,1,1
10:51:20.722,VIGILE,1,-178.89,-6.0,0.255,1.444,4.551,-8.993,-0.115,-0.023,0.285,81.84,0.0,26.5,33,1,1
10:51:21.222,VIGILE,1,172.25,-2.88,0.222,0.299,3.883,-9.5,-0.054,-0.045,0.229,81.84,0.0,26.6,33,1,1
10:51:21.722,VIGILE,1,-178.99,-3.79,0.251,0.309,2.909,-9.419,-0.116,0.05,0.053,81.84,0.0,26.6,33,1,1
10:51:22.222,VIGILE,1,178.61,7.5,0.087,-0.39,3.311,-9.076,-0.1,0.032,0.009,81.84,0.0,26.6,33,1,1
10:51:22.722,VIGILE,1,173.98,-4.62,0.132,-0.287,2.856,-9.428,-0.112,0.049,-0.018,81.84,0.0,26.6,33,1,1
10:51:23.222,VIGILE,1,171.98,-3.87,0.22,-0.745,3.17,-9.584,-0.141,0.078,-0.031,81.84,0.0,26.6,33,1,1
10:51:23.722,VIGILE,1,173.59,-4.61,0.227,-1.607,3.314,-9.5,-0.095,0.057,-0.021,81.84,0.0,26.6,33,1,1
10:51:24.222,VIGILE,1,176.6,-9.73,0.248,-0.874,3.721,-9.196,-0.101,0.047,-0.028,81.84,0.0,26.6,33,1,1
10:51:24.722,VIGILE,1,177.71,-8.3,0.252,-0.776,2.172,-7.913,-0.212,0.122,-0.038,81.84,0.0,26.6,33,1,1
10:51:25.222,VIGILE,1,176.71,-7.13,0.227,-0.093,2.638,-9.378,-0.126,0.051,-0.033,81.84,0.0,26.6,33,1,1
10:51:25.722,VIGILE,1,171.91,-3.88,0.232,-0.661,3.038,-9.153,-0.128,0.062,-0.047,81.84,0.0,26.6,33,1,1
10:51:26.222,VIGILE,1,175.03,-8.43,0.244,-0.431,2.655,-9.464,-0.129,0.08,-0.038,81.84,0.0,26.6,33,1,1
10:51:26.722,VIGILE,1,174.8,-8.83,0.242,-0.965,3.567,-9.127,-0.104,0.068,-0.01,81.84,0.0,26.6,33,1,1
10:51:27.223,VIGILE,1,178.15,-10.89,0.285,-0.563,4.096,-8.705,-0.11,0.043,0.03,81.84,0.0,26.6,33,1,1
10:51:27.723,VIGILE,1,179.23,-10.71,0.268,-0.979,4.123,-8.964,-0.103,0.047,0.054,81.84,0.0,26.6,33,1,1
10:51:28.223,VIGILE,1,177.47,20.97,0.233,-0.362,3.795,-8.48,-0.127,0.033,0.036,81.84,0.0,26.6,33,1,1
10:51:28.723,VIGILE,1,176.32,-7.28,0.247,-0.67,2.885,-9.033,-0.119,0.063,0.017,81.84,0.0,26.6,33,1,1
10:51:29.223,VIGILE,1,176.3,-13.88,0.25,-0.891,3.06,-8.928,-0.105,0.062,-0.042,81.84,0.0,26.6,33,1,1
10:51:29.723,VIGILE,1,173.86,-9.61,0.231,-0.606,2.729,-8.988,-0.138,0.086,-0.021,81.84,0.0,26.6,33,1,1
10:51:30.223,VIGILE,1,172.08,-8.76,0.253,-0.915,2.708,-9.464,-0.145,0.076,-0.029,81.84,0.0,26.6,33,1,1
10:51:30.723,VIGILE,1,174.51,-10.71,0.254,-0.857,3.529,-9.51,-0.109,0.033,-0.009,81.84,0.0,26.6,33,1,1
10:51:31.223,VIGILE,1,175.27,38.62,0.231,-0.366,2.672,-8.691,-0.126,0.056,-0.033,81.84,0.0,26.7,32,1,1
10:51:31.724,VIGILE,1,177.8,48.12,0.309,-0.615,3.148,-9.117,-0.176,0.061,-0.036,81.84,0.0,26.7,32,1,1
10:51:32.224,VIGILE,1,178.81,28.28,0.25,-0.206,3.232,-9.268,-0.145,0.07,-0.031,81.84,0.0,26.7,32,1,1
10:51:32.724,VIGILE,1,178.19,-10.13,0.249,-0.735,3.024,-8.662,-0.1,0.06,-0.02,81.84,0.0,26.7,32,1,1
10:51:33.224,VIGILE,1,179.42,-16.76,0.258,-1.319,2.966,-8.981,-0.156,0.032,-0.021,81.84,0.0,26.7,32,1,1
10:51:33.724,VIGILE,1,173.15,-13.33,0.132,-1.671,3.457,-9.637,-0.158,0.124,-0.004,81.84,0.0,26.7,32,1,1
10:51:34.224,VIGILE,1,173.73,-13.97,0.221,-1.7,3.57,-8.684,-0.121,0.081,-0.003,81.84,0.0,26.7,32,1,1
10:51:34.724,VIGILE,1,170.04,-6.79,0.232,-1.468,3.23,-9.194,-0.139,0.075,-0.007,81.84,0.0,26.7,32,1,1
10:51:35.224,VIGILE,1,171.47,-8.75,0.206,-1.362,3.314,-8.595,-0.124,0.076,-0.016,81.84,0.0,26.7,32,1,1
10:51:35.724,VIGILE,1,173.45,-10.49,0.238,-1.238,3.218,-9.074,-0.101,0.072,-0.023,81.84,0.0,26.7,32,1,1
10:51:36.224,VIGILE,1,173.91,-9.72,0.252,-1.109,3.208,-9.086,-0.189,0.075,-0.038,81.84,0.0,26.7,32,1,1
10:51:36.724,VIGILE,1,176.14,-13.36,0.244,-0.821,2.897,-8.981,-0.148,0.069,-0.024,81.84,0.0,26.7,32,1,1
10:51:37.224,VIGILE,1,173.75,-8.2,0.25,-0.702,3.644,-9.613,-0.167,0.072,-0.021,81.84,0.0,26.7,32,1,1
10:51:37.724,VIGILE,1,174.04,-7.96,0.209,-1.018,3.033,-9.402,-0.153,0.091,-0.003,81.84,0.0,26.7,32,1,1
10:51:38.224,VIGILE,1,168.34,-3.29,0.164,-0.917,3.45,-9.67,-0.114,0.013,-0.036,81.84,0.0,26.7,32,1,1
10:51:38.724,VIGILE,1,173.18,1.62,0.259,-0.491,2.938,-9.052,-0.183,0.101,-0.012,81.84,0.0,26.7,32,1,1
10:51:39.224,VIGILE,1,173.21,-5.89,0.248,-1.197,3.467,-9.304,-0.056,0.059,-0.019,81.84,0.0,26.7,32,1,1
10:51:39.725,VIGILE,1,173.39,-5.81,0.248,-0.723,3.383,-9.239,-0.139,0.046,-0.025,81.84,0.0,26.7,32,1,1
10:51:40.225,VIGILE,1,175.13,-10.4,0.264,-1.547,3.338,-8.952,-0.16,0.075,-0.012,81.84,0.0,26.7,32,1,1
10:51:40.725,VIGILE,1,172.09,-10.31,0.212,-1.022,3.73,-9.232,-0.153,0.071,-0.008,81.84,0.0,26.7,32,1,1
10:51:41.225,VIGILE,1,174.33,-7.85,0.244,-0.79,3.156,-8.681,-0.153,0.086,-0.015,81.84,0.0,26.7,32,1,1
10:51:41.725,VIGILE,1,174.63,-7.47,0.252,-0.424,3.0,-8.643,-0.157,0.118,-0.014,81.84,0.0,26.7,32,1,1
10:51:42.225,VIGILE,1,176.69,-9.61,0.273,-1.075,3.342,-8.835,-0.099,0.068,-0.017,81.84,0.0,26.7,32,1,1
10:51:42.725,VIGILE,1,175.16,0.0,0.264,-1.245,3.431,-9.527,-0.061,0.034,-0.011,81.84,0.0,26.7,32,1,1
10:51:43.225,VIGILE,1,176.17,-5.84,0.264,-1.176,2.866,-9.153,-0.138,0.044,-0.022,81.84,0.0,26.7,32,1,1
10:51:43.725,VIGILE,1,178.46,-11.16,0.271,-0.979,3.146,-8.622,-0.154,0.093,-0.044,81.84,0.0,26.7,32,1,1
10:51:44.225,VIGILE,1,178.18,-8.96,0.271,-1.647,3.244,-8.993,-0.088,0.065,-0.024,81.84,0.0,26.7,32,1,1
10:51:44.725,VIGILE,1,175.09,-10.68,0.136,-1.358,3.237,-9.052,-0.14,0.073,-0.021,81.84,0.0,26.7,32,1,1
10:51:45.225,VIGILE,1,175.72,-13.3,0.253,-1.135,3.259,-9.177,-0.126,0.074,-0.012,81.84,0.0,26.7,32,1,1
10:51:45.725,VIGILE,1,176.72,-10.07,0.22,-0.639,4.396,-8.511,-0.115,0.055,-0.011,81.84,0.0,26.7,32,1,1
10:51:46.226,VIGILE,1,176.9,-7.88,0.222,-1.401,3.244,-8.947,-0.129,0.068,-0.011,81.84,0.0,26.7,32,1,1
10:51:46.726,VIGILE,1,176.75,-11.03,0.22,-1.247,3.44,-9.141,-0.145,0.069,-0.013,81.84,0.0,26.7,32,1,1
10:51:47.226,VIGILE,1,176.68,-12.7,0.213,-1.652,3.12,-8.856,-0.164,0.084,-0.025,81.84,0.0,26.7,32,1,1
10:51:47.726,VIGILE,1,176.31,-13.56,0.232,-1.645,2.516,-9.565,-0.102,0.04,-0.006,81.84,0.0,26.7,32,1,0
10:51:48.226,VIGILE,1,176.22,-13.12,0.267,-1.535,3.687,-9.172,-0.093,0.062,-0.009,81.84,0.0,26.7,32,0,0
10:51:48.726,VIGILE,1,177.65,-13.56,0.221,-1.659,3.306,-9.639,-0.105,0.068,-0.007,81.84,0.0,26.7,31,0,0
10:51:49.226,VIGILE,1,178.22,-13.18,0.225,-1.223,3.263,-9.483,-0.13,0.067,-0.019,81.84,0.0,26.7,31,0,0
10:51:49.726,VIGILE,1,177.58,-12.38,0.243,-1.592,3.515,-8.739,-0.148,0.059,-0.02,81.84,0.0,26.7,31,0,0
10:51:50.226,VIGILE,1,172.46,1.34,0.254,-1.085,2.641,-9.026,-0.206,0.062,-0.026,81.84,0.0,26.7,31,0,0
10:51:50.726,VIGILE,1,173.54,-6.19,0.221,-0.91,3.359,-8.993,-0.197,0.094,-0.018,81.84,0.0,26.7,31,0,0
10:51:51.226,EBBREZZA,1,174.76,-9.13,0.249,-0.943,3.917,-9.591,-0.106,0.063,-0.006,81.84,0.0,26.7,31,0,0
10:51:51.726,EBBREZZA,1,173.36,-6.74,0.25,-0.709,3.709,-8.6,-0.165,0.08,-0.032,81.84,0.0,26.7,31,0,0
10:51:52.226,EBBREZZA,1,173.98,-5.08,0.207,-0.754,3.165,-8.792,-0.156,0.078,-0.032,81.84,0.0,26.7,31,0,0
10:51:52.726,EBBREZZA,1,172.84,-2.6,0.122,-1.178,3.579,-9.395,-0.119,0.055,-0.022,81.84,0.0,26.7,31,0,0
10:51:53.226,EBBREZZA,1,174.61,-4.61,0.264,-1.132,3.534,-9.438,-0.078,0.033,-0.007,81.84,0.0,26.7,31,0,0
10:51:53.727,EBBREZZA,1,172.99,-2.11,0.259,-0.886,3.491,-8.736,-0.124,0.073,-0.021,81.84,0.0,26.7,31,0,0
10:51:54.227,EBBREZZA,1,172.37,-3.13,0.24,-1.14,3.237,-8.971,-0.164,0.084,-0.025,81.84,0.0,26.7,31,0,0
10:51:54.727,EBBREZZA,1,167.79,-2.74,0.117,-0.994,3.196,-8.916,-0.126,0.069,-0.02,81.84,0.0,26.7,31,0,0
10:51:55.227,EBBREZZA,1,171.09,-5.03,0.252,-1.223,3.395,-9.05,-0.122,0.052,-0.023,81.84,0.0,26.7,31,0,0
10:51:55.727,EBBREZZA,1,170.6,-3.23,0.248,-1.987,3.587,-8.485,-0.192,0.096,-0.035,81.84,0.0,26.7,31,0,0
10:51:56.227,EBBREZZA,1,172.29,-2.89,0.254,-2.318,3.768,-8.052,-0.152,0.081,-0.026,81.84,0.0,26.7,31,0,0
10:51:56.727,EBBREZZA,1,174.26,-4.86,0.254,-2.586,4.041,-8.234,-0.142,0.058,-0.032,81.84,0.0,26.7,31,0,0
10:51:57.227,EBBREZZA,1,174.43,-7.49,0.235,-2.756,4.015,-8.531,-0.147,0.069,-0.023,81.84,0.0,26.7,31,0,0
10:51:57.727,EBBREZZA,1,173.13,-4.91,0.255,-3.117,3.821,-8.483,-0.112,0.045,-0.007,81.84,0.0,26.7,31,0,0
10:51:58.227,EBBREZZA,1,173.59,-6.11,0.262,-3.223,4.085,-8.054,-0.165,0.079,-0.023,81.84,0.0,26.7,31,0,0
10:51:58.727,EBBREZZA,1,175.36,-8.16,0.285,-0.666,3.227,-8.894,-0.142,0.103,-0.02,81.84,0.0,26.7,31,0,0
10:51:59.228,EBBREZZA,1,174.13,-8.62,0.244,-0.694,3.105,-9.009,-0.141,0.073,-0.02,81.84,0.0,26.7,31,0,0
10:51:59.728,EBBREZZA,1,175.5,-18.71,0.23,-1.006,3.244,-9.019,-0.131,0.07,-0.017,81.84,0.0,26.7,31,0,0
10:52:00.228,EBBREZZA,1,174.79,-23.23,0.187,-0.848,3.232,-9.12,-0.126,0.066,-0.016,81.84,0.0,26.7,31,0,0
10:52:00.728,EBBREZZA,1,177.23,-6.93,0.252,-0.903,3.141,-9.105,-0.144,0.066,-0.023,81.84,0.0,26.7,31,0,0
10:52:01.228,EBBREZZA,1,175.84,-5.88,0.268,-0.742,3.302,-8.981,-0.12,0.057,-0.014,81.84,0.0,26.7,31,0,0
10:52:01.728,EBBREZZA,1,175.03,-1.34,0.269,-1.03,3.127,-9.151,-0.138,0.057,-0.016,81.84,0.0,26.7,31,0,0
10:52:02.228,EBBREZZA,1,174.97,3.18,0.248,-0.709,3.115,-9.1,-0.132,0.07,-0.018,81.84,0.0,26.7,31,0,0
10:52:02.728,EBBREZZA,1,173.05,4.23,0.222,-1.049,3.321,-9.12,-0.128,0.056,-0.02,81.84,0.0,26.7,31,0,0
10:52:03.228,EBBREZZA,1,175.12,-2.16,0.199,-0.745,3.132,-9.012,-0.14,0.063,-0.018,81.84,0.0,26.7,31,1,0
10:52:03.728,EBBREZZA,1,176.0,-1.91,0.277,-0.946,3.254,-9.191,-0.144,0.072,-0.022,81.84,0.0,26.7,31,1,0
10:52:04.228,EBBREZZA,1,176.95,-1.19,0.255,-0.733,3.249,-8.961,-0.122,0.066,-0.018,81.84,0.0,26.7,31,1,0
10:52:04.728,EBBREZZA,1,175.04,-4.94,0.183,-0.965,3.273,-9.378,-0.13,0.072,-0.016,81.84,0.0,26.7,31,1,0
10:52:05.228,EBBREZZA,1,175.61,-3.52,0.256,-0.888,3.077,-8.969,-0.133,0.071,-0.019,81.84,0.0,26.7,31,1,0
10:52:05.728,EBBREZZA,1,176.88,-4.13,0.237,-0.867,3.28,-9.014,-0.13,0.068,-0.019,81.84,0.0,26.7,31,1,0
10:52:06.228,EBBREZZA,1,175.76,-3.19,0.243,-0.965,3.318,-9.091,-0.132,0.071,-0.021,81.84,0.0,26.7,31,1,0
10:52:06.728,EBBREZZA,1,175.26,-3.22,0.202,-0.795,3.124,-9.084,-0.144,0.071,-0.023,81.84,0.0,26.7,31,1,0
10:52:07.229,EBBREZZA,1,176.82,23.45,0.207,-0.869,3.266,-9.311,-0.131,0.066,-0.022,81.84,0.0,26.7,31,1,0
10:52:07.729,EBBREZZA,1,175.73,22.07,0.213,-0.879,3.227,-8.918,-0.128,0.069,-0.019,81.84,0.0,26.7,31,1,0
10:52:08.229,EBBREZZA,1,176.88,18.32,0.217,-0.907,3.359,-9.278,-0.132,0.079,-0.018,81.84,0.0,26.7,31,1,0
10:52:08.729,EBBREZZA,1,175.37,6.98,0.209,-0.998,3.144,-9.019,-0.136,0.074,-0.019,81.84,0.0,26.7,31,1,0
10:52:09.229,EBBREZZA,1,175.11,2.84,0.214,-0.939,3.266,-8.961,-0.127,0.071,-0.018,81.84,0.0,26.7,31,1,0
10:52:09.729,EBBREZZA,1,174.02,2.65,0.21,-0.888,3.268,-9.021,-0.137,0.069,-0.017,81.84,0.0,26.7,31,1,0
10:52:10.229,EBBREZZA,1,176.27,22.87,0.21,-0.733,3.079,-8.945,-0.13,0.064,-0.017,81.84,0.0,26.7,31,1,0
10:52:10.729,EBBREZZA,1,176.0,32.9,0.207,-0.905,3.191,-9.096,-0.142,0.074,-0.019,81.84,0.0,26.7,31,1,0
10:52:11.229,EBBREZZA,1,177.1,34.1,0.216,0.539,2.571,-9.507,-0.108,0.065,-0.007,81.84,0.0,26.7,31,1,0
10:52:11.730,EBBREZZA,1,176.09,16.18,0.203,3.168,1.496,-10.341,-0.066,0.072,0.003,81.84,0.0,26.7,31,1,0
10:52:12.230,EBBREZZA,1,176.24,15.48,0.224,0.335,2.768,-9.328,-0.095,0.025,-0.007,81.84,0.0,26.7,31,1,0
10:52:12.730,EBBREZZA,1,178.13,-0.99,0.26,0.639,2.466,-9.206,-0.075,0.057,-0.01,81.84,0.0,26.7,31,1,0
10:52:13.230,EBBREZZA,1,173.78,0.53,0.228,1.437,1.496,-9.555,-0.211,0.1,-0.052,81.84,0.0,26.7,31,1,0
10:52:13.730,EBBREZZA,1,172.82,7.28,0.232,-1.35,3.16,-9.038,-0.098,0.029,-0.021,81.84,0.0,26.6,31,1,0
10:52:14.230,EBBREZZA,1,171.11,17.02,0.245,-0.733,3.321,-9.392,-0.161,0.063,-0.025,81.84,0.0,26.6,31,1,0
10:52:14.730,EBBREZZA,1,172.96,39.71,0.21,-1.173,3.179,-9.232,-0.142,0.084,-0.022,81.84,0.0,26.6,31,1,0
10:52:15.230,EBBREZZA,1,173.73,35.19,0.201,-1.03,3.273,-8.77,-0.152,0.064,-0.015,81.84,0.0,26.6,31,1,0
10:52:15.730,EBBREZZA,1,172.76,13.28,0.252,-1.276,3.089,-9.019,-0.143,0.087,-0.015,81.84,0.0,26.6,31,1,0
10:52:16.230,EBBREZZA,1,172.01,12.25,0.271,-0.654,3.371,-9.019,-0.132,0.057,0.002,81.84,0.0,26.6,31,1,0
10:52:16.730,EBBREZZA,1,170.01,22.69,0.209,-0.505,3.225,-9.237,-0.156,0.036,0.02,81.84,0.0,26.6,31,1,0
10:52:17.230,VIGILE,1,172.83,29.67,0.242,-1.3,3.237,-8.586,-0.134,0.067,0.009,81.84,0.0,26.6,31,1,0
10:52:17.730,VIGILE,1,174.71,32.68,0.26,-1.429,3.409,-8.945,-0.123,0.05,0.003,81.84,0.0,26.6,31,1,0
10:52:18.230,VIGILE,1,172.84,37.18,0.278,-1.255,3.189,-8.952,-0.17,0.071,-0.005,81.84,0.0,26.6,31,1,0
10:52:18.730,VIGILE,1,170.16,24.76,0.197,-0.721,3.141,-8.665,-0.141,0.074,-0.005,81.84,0.0,26.6,31,1,0
10:52:19.230,VIGILE,1,170.92,13.94,0.208,-0.771,3.105,-9.342,-0.154,0.053,-0.001,81.84,0.0,26.6,31,1,0
10:52:19.731,VIGILE,1,174.15,-2.55,0.246,-1.391,2.801,-8.82,-0.182,0.086,-0.024,81.84,0.0,26.6,31,1,0
10:52:20.231,VIGILE,1,175.48,-10.07,0.244,-1.168,3.168,-9.201,-0.125,0.047,-0.017,81.84,0.0,26.6,31,1,0
10:52:20.731,VIGILE,1,173.8,-9.99,0.272,-1.106,3.141,-9.055,-0.129,0.092,-0.024,81.84,0.0,26.6,31,1,1
10:52:21.231,VIGILE,1,170.59,-3.52,0.234,-1.307,3.498,-9.345,-0.116,0.072,-0.034,81.84,0.0,26.6,32,1,1
10:52:21.731,VIGILE,1,173.87,-13.06,0.256,-1.736,3.218,-8.906,-0.113,0.106,-0.058,81.84,0.0,26.6,32,1,1
10:52:22.231,VIGILE,1,170.1,-7.63,0.243,-0.852,3.168,-9.304,-0.133,0.078,-0.089,81.84,0.0,26.6,32,1,1
10:52:22.731,VIGILE,1,174.78,-12.08,0.238,0.745,1.774,-9.395,-0.184,0.144,-0.092,81.84,0.0,26.6,32,1,1
10:52:23.231,VIGILE,1,176.97,-8.96,0.246,1.199,1.954,-10.295,-0.073,0.068,-0.072,81.84,0.0,26.6,32,1,1
10:52:23.731,VIGILE,1,171.01,8.27,0.228,-1.393,2.605,-9.258,-0.143,0.07,-0.114,81.84,0.0,26.6,32,1,1
10:52:24.231,VIGILE,1,170.94,2.67,0.252,-1.396,4.178,-9.79,-0.116,0.062,-0.037,81.84,0.0,26.6,32,1,1
10:52:24.731,VIGILE,1,169.34,-2.93,0.234,-0.383,3.266,-7.968,-0.122,0.043,-0.018,81.84,0.0,26.6,32,1,1
10:52:25.231,VIGILE,1,173.56,-11.65,0.229,-2.004,3.912,-7.7,-0.081,0.185,0.041,81.84,0.0,26.6,32,1,1
10:52:25.731,VIGILE,1,174.3,-7.96,0.244,-1.369,3.455,-8.871,-0.116,0.036,0.022,81.84,0.0,26.6,32,1,1
10:52:26.231,VIGILE,1,173.96,-4.46,0.239,-1.173,3.752,-8.988,-0.121,0.048,0.019,81.84,0.0,26.6,32,1,1
10:52:26.731,VIGILE,1,175.22,-28.87,0.273,-0.816,3.474,-9.062,-0.129,0.055,0.002,81.84,0.0,26.6,32,1,1
10:52:27.231,VIGILE,1,170.81,-16.73,0.211,-0.024,2.433,-9.055,-0.183,0.102,-0.008,81.84,0.0,26.6,32,1,1
10:52:27.732,VIGILE,1,173.93,0.46,0.265,0.484,2.512,-9.548,-0.113,0.062,-0.006,81.84,0.0,26.6,32,1,1
10:52:28.232,VIGILE,1,174.52,-1.59,0.239,0.383,2.732,-9.328,-0.175,0.084,-0.032,81.84,0.0,26.6,32,1,1
10:52:28.732,VIGILE,1,176.18,-3.26,0.257,-0.18,2.892,-9.342,-0.126,0.06,-0.017,81.84,0.0,26.5,32,1,1
10:52:29.232,VIGILE,1,176.21,-1.4,0.24,0.208,2.751,-9.625,-0.166,0.084,-0.026,81.84,0.0,26.5,32,1,1
10:52:29.732,VIGILE,1,176.6,-0.47,0.254,-1.077,3.294,-9.266,-0.166,0.052,-0.036,81.84,0.0,26.5,32,1,1
10:52:30.232,VIGILE,1,175.66,-1.66,0.255,-0.151,2.923,-9.507,-0.145,0.058,-0.009,81.84,0.0,26.5,32,1,1
10:52:30.732,VIGILE,1,178.17,-4.85,0.267,-0.168,2.693,-8.736,-0.141,0.072,-0.004,81.84,0.0,26.5,32,1,1
10:52:31.232,VIGILE,1,175.04,-2.11,0.276,-1.13,3.129,-8.928,-0.149,0.047,-0.019,81.84,0.0,26.5,32,1,1
10:52:31.732,VIGILE,1,173.61,-5.96,0.214,-0.378,3.153,-8.447,-0.182,0.061,-0.028,81.84,0.0,26.5,32,1,1
10:52:32.232,VIGILE,1,173.05,-3.65,0.234,-0.675,2.966,-9.562,-0.133,0.072,-0.037,81.84,0.0,26.5,32,1,1
10:52:32.732,VIGILE,1,173.09,-6.44,0.118,-1.437,3.098,-9.44,-0.117,0.105,-0.03,81.84,0.0,26.5,32,1,1
10:52:33.232,VIGILE,1,174.66,-8.48,0.236,-0.986,3.187,-9.218,-0.08,0.052,-0.045,81.84,0.0,26.5,32,1,1
10:52:33.732,VIGILE,1,172.77,-4.1,0.242,-1.566,2.861,-9.033,-0.144,0.082,-0.031,81.84,0.0,26.5,32,1,1
10:52:34.232,VIGILE,1,173.4,-5.36,0.234,-2.421,3.069,-8.708,-0.127,-0.004,-0.034,81.84,0.0,26.5,32,1,1
10:52:34.733,VIGILE,1,174.38,-1.93,0.249,-3.28,3.725,-8.329,-0.133,0.085,-0.025,81.84,0.0,26.5,32,1,1
10:52:35.233,VIGILE,1,170.02,0.39,0.24,-3.361,3.639,-8.784,-0.225,0.093,-0.028,81.84,0.0,26.5,32,1,1
10:52:35.733,VIGILE,1,171.32,1.35,0.249,-3.4,4.041,-8.095,-0.192,0.055,-0.022,81.84,0.0,26.5,32,1,1
10:52:36.233,VIGILE,1,175.37,2.54,0.268,-1.209,3.11,-8.871,-0.083,0.079,0.007,81.84,0.0,26.4,32,1,1
10:52:36.733,VIGILE,1,173.03,3.08,0.26,-2.064,3.596,-8.871,-0.119,0.046,-0.006,81.84,0.0,26.4,32,1,1
10:52:37.233,VIGILE,1,175.73,3.02,0.256,-1.152,2.904,-8.954,-0.163,0.06,-0.015,81.84,0.0,26.4,32,1,1
10:52:37.733,VIGILE,1,175.72,-0.82,0.274,-0.124,2.557,-9.402,-0.116,0.061,0.03,81.84,0.0,26.4,32,1,1
10:52:38.233,VIGILE,1,177.91,-1.69,0.264,-0.311,2.67,-9.347,-0.096,0.054,0.036,81.84,0.0,26.4,32,1,1
10:52:38.733,VIGILE,1,172.88,0.51,0.267,0.196,2.749,-9.524,-0.081,0.05,0.029,81.84,0.0,26.4,32,1,1
10:52:39.233,VIGILE,1,176.0,-10.0,0.274,-0.682,2.708,-9.163,-0.128,0.064,0.017,81.84,0.0,26.4,32,1,1
10:52:39.733,VIGILE,1,176.76,-9.75,0.268,-0.632,3.045,-9.699,-0.071,0.029,0.034,81.84,0.0,26.4,32,1,1
10:52:40.233,VIGILE,1,175.45,-7.29,0.273,-0.05,2.737,-8.981,-0.131,0.052,-0.011,81.84,0.0,26.4,32,1,1
10:52:40.733,VIGILE,1,175.07,-7.09,0.252,-0.306,2.88,-9.191,-0.169,0.09,-0.015,81.84,0.0,26.4,32,1,1
10:52:41.234,VIGILE,1,171.35,-30.91,0.306,-0.347,2.763,-8.892,-0.137,0.08,-0.008,81.84,0.0,26.4,32,1,1
10:52:41.734,VIGILE,1,171.07,-33.42,0.187,-1.389,2.878,-9.318,-0.114,0.046,-0.011,81.84,0.0,26.4,32,1,1
10:52:42.234,VIGILE,1,166.37,-68.91,0.379,-2.665,3.582,-9.076,-0.106,0.056,-0.021,81.84,0.0,26.4,32,1,1
10:52:42.734,VIGILE,1,172.1,-40.98,0.424,-0.95,3.239,-8.655,-0.175,0.07,-0.018,81.84,0.0,26.4,32,1,1
10:52:43.234,VIGILE,0,0.0,0.0,0.0,-1.705,3.45,-8.887,-0.124,0.05,-0.016,81.84,0.0,26.4,32,1,1
10:52:43.734,DISTRAZIONE,1,167.4,-77.46,0.486,-1.652,3.33,-8.947,-0.132,0.086,-0.014,81.84,0.0,26.4,31,1,1
10:52:44.234,DISTRAZIONE,1,176.0,-38.47,0.397,-1.633,3.026,-9.483,-0.071,0.019,0.013,81.84,0.0,26.4,31,1,1
10:52:44.734,DISTRAZIONE,1,176.11,-44.22,0.668,-0.601,2.399,-9.646,-0.152,0.08,-0.024,81.84,0.0,26.4,31,1,1
10:52:45.234,DISTRAZIONE,1,162.58,-72.93,0.431,-0.522,3.136,-9.158,-0.146,0.045,-0.027,81.84,0.0,26.4,31,1,1
10:52:45.734,DISTRAZIONE,1,166.12,-74.33,0.52,-0.874,2.49,-9.737,-0.153,0.077,-0.042,81.84,0.0,26.4,31,1,1
10:52:46.234,DISTRAZIONE,1,174.16,-39.19,0.335,-1.123,2.777,-9.929,-0.155,0.092,-0.035,81.84,0.0,26.3,31,1,1
10:52:46.734,DISTRAZIONE,1,155.41,-78.0,0.667,-0.728,2.959,-9.438,-0.141,0.063,-0.002,81.84,0.0,26.3,31,1,1
10:52:47.234,DISTRAZIONE,1,175.13,-37.54,0.293,-0.5,3.311,-9.522,-0.09,0.082,0.003,81.84,0.0,26.3,31,1,1
10:52:47.734,DISTRAZIONE,1,159.52,-73.32,0.398,-0.266,2.835,-8.99,-0.148,0.034,-0.003,81.84,0.0,26.3,31,1,1
10:52:48.234,DISTRAZIONE,1,160.24,-42.45,0.356,0.108,2.83,-9.665,-0.149,0.082,-0.011,81.84,0.0,26.3,31,1,1
10:52:48.734,DISTRAZIONE,1,173.51,-34.0,0.321,0.16,2.799,-9.491,-0.177,0.072,-0.022,81.84,0.0,26.3,31,1,1
10:52:49.235,DISTRAZIONE,0,0.0,0.0,0.0,-1.906,3.352,-8.894,-0.08,0.075,0.013,81.84,0.0,26.3,31,1,1
10:52:49.735,DISTRAZIONE,1,172.93,-26.36,0.327,-0.788,3.115,-8.289,-0.167,0.067,-0.038,81.84,0.0,26.3,31,1,1
10:52:50.235,DISTRAZIONE,1,175.0,-30.3,0.24,-0.539,2.909,-9.263,-0.129,0.044,-0.014,81.84,0.0,26.3,31,1,1
10:52:50.735,DISTRAZIONE,1,175.73,-12.56,0.241,0.156,2.813,-8.775,-0.191,0.102,-0.041,81.84,0.0,26.3,31,1,1
10:52:51.235,DISTRAZIONE,1,173.39,-0.01,0.221,-1.087,3.297,-8.887,-0.135,0.034,-0.014,81.84,0.0,26.3,31,1,1
10:52:51.735,DISTRAZIONE,1,169.13,4.15,0.196,-1.044,3.053,-9.048,-0.114,0.063,-0.025,81.84,0.0,26.3,31,1,1
10:52:52.235,VIGILE,1,170.49,0.8,0.225,-1.142,2.82,-8.882,-0.189,0.108,-0.041,81.84,0.0,26.3,31,1,1
10:52:52.735,VIGILE,1,175.57,1.73,0.191,-0.888,2.938,-8.947,-0.162,0.103,-0.022,81.84,0.0,26.3,31,1,1
10:52:53.235,VIGILE,1,174.36,-0.97,0.12,-0.294,3.302,-8.918,-0.156,0.076,-0.012,81.84,0.0,26.3,31,1,1
10:52:53.735,VIGILE,1,177.21,-3.73,0.237,-0.567,3.036,-9.895,-0.098,0.059,0.005,81.84,0.0,26.3,31,1,1
10:52:54.235,VIGILE,1,175.08,0.35,0.254,-0.469,2.756,-9.742,-0.11,0.063,-0.011,81.84,0.0,26.3,31,1,1
10:52:54.735,VIGILE,1,175.01,0.99,0.231,-0.498,2.622,-9.177,-0.117,0.055,-0.002,81.84,0.0,26.3,31,1,1
10:52:55.235,VIGILE,1,174.5,-1.78,0.236,-1.051,2.851,-9.16,-0.124,0.076,-0.019,81.84,0.0,26.3,31,1,1
10:52:55.735,VIGILE,1,176.01,-2.26,0.197,-0.833,2.904,-8.823,-0.107,0.06,-0.02,81.84,0.0,26.3,31,1,1
10:52:56.235,VIGILE,1,178.26,-3.01,0.266,-0.019,3.472,-8.65,-0.132,0.093,-0.026,81.84,0.0,26.2,32,1,1
10:52:56.736,VIGILE,1,178.54,-1.59,0.281,-1.018,3.254,-9.153,-0.124,0.054,-0.035,81.84,0.0,26.2,32,1,1
10:52:57.236,VIGILE,1,176.77,-3.84,0.283,-0.888,2.954,-8.906,-0.149,0.097,-0.021,81.84,0.0,26.2,32,1,1
10:52:57.736,VIGILE,1,178.62,-7.98,0.269,-0.302,3.412,-8.351,-0.185,0.079,-0.04,81.84,0.0,26.2,32,1,1
10:52:58.236,VIGILE,1,179.04,-6.21,0.271,-0.886,3.531,-9.589,-0.106,0.0,0.002,81.84,0.0,26.2,32,1,1
10:52:58.736,VIGILE,1,174.39,-1.65,0.261,-0.536,3.378,-9.529,-0.143,0.066,-0.015,81.84,0.0,26.2,32,1,1
10:52:59.236,VIGILE,1,176.51,-4.18,0.267,-1.255,3.206,-8.724,-0.109,0.062,-0.023,81.84,0.0,26.2,32,1,1
10:52:59.736,VIGILE,1,176.92,-11.61,0.24,-1.087,3.309,-8.681,-0.248,0.076,-0.043,81.84,0.0,26.2,32,1,1
10:53:00.236,VIGILE,1,174.95,-6.65,0.257,-1.068,2.82,-9.076,-0.132,0.057,-0.002,81.84,0.0,26.2,32,1,1
10:53:00.736,VIGILE,1,174.29,-1.33,0.243,-1.003,3.292,-7.925,-0.042,0.024,-0.013,81.84,0.0,26.2,32,1,1
10:53:01.236,VIGILE,1,176.42,4.23,0.265,-1.202,3.833,-9.081,-0.081,0.053,-0.013,81.84,0.0,26.2,32,1,1
10:53:01.736,VIGILE,1,177.39,0.33,0.261,-0.345,2.801,-8.868,-0.197,0.103,-0.045,81.84,0.0,26.2,32,1,1
10:53:02.236,VIGILE,1,175.48,-2.51,0.238,-0.941,3.397,-9.115,-0.076,0.049,-0.026,81.84,0.0,26.2,32,1,1
10:53:02.736,VIGILE,1,177.47,-6.17,0.267,-1.195,2.995,-9.153,-0.118,0.072,-0.022,81.84,0.0,26.2,32,1,1
10:53:03.236,VIGILE,1,176.4,-7.07,0.265,-0.632,2.873,-9.313,-0.099,0.031,-0.046,81.84,0.0,26.2,32,1,1
10:53:03.736,VIGILE,1,177.62,-8.98,0.264,-1.377,3.074,-9.122,-0.086,0.034,-0.016,81.84,0.0,26.2,31,1,1
10:53:04.237,VIGILE,1,177.54,-9.25,0.253,-1.595,2.969,-9.175,-0.156,0.065,-0.016,81.84,0.0,26.2,31,1,1
10:53:04.737,VIGILE,1,175.87,-6.45,0.255,-1.176,3.019,-8.653,-0.142,0.069,-0.021,81.84,0.0,26.2,31,1,1
10:53:05.237,VIGILE,1,176.95,-8.13,0.258,-1.427,3.46,-9.4,-0.119,0.062,-0.019,81.84,0.0,26.2,31,1,1
10:53:05.737,VIGILE,1,177.45,-1.43,0.244,-1.525,3.563,-9.076,-0.086,0.048,-0.005,81.84,0.0,26.2,31,1,1
10:53:06.237,VIGILE,1,177.26,-6.41,0.222,-1.946,3.024,-9.014,-0.15,0.074,-0.009,81.84,0.0,26.2,31,1,1
10:53:06.737,VIGILE,1,177.48,-8.25,0.232,-0.939,3.718,-9.22,-0.137,0.058,0.003,81.84,0.0,26.2,31,1,1
10:53:07.237,VIGILE,1,177.62,-8.26,0.242,-1.075,3.982,-8.923,-0.131,0.075,0.005,81.84,0.0,26.2,31,1,1
10:53:07.737,VIGILE,1,177.78,-7.86,0.079,-1.075,3.63,-8.686,-0.123,0.042,0.035,81.84,0.0,26.2,31,1,1
10:53:08.237,VIGILE,1,176.39,-11.99,0.237,-1.049,4.152,-9.649,-0.105,0.037,0.037,81.84,0.0,26.2,31,1,1
10:53:08.737,VIGILE,1,177.74,-5.28,0.077,-1.03,3.575,-9.108,-0.123,0.044,0.026,81.84,0.0,26.2,31,1,1
10:53:09.237,VIGILE,1,176.76,-5.39,0.247,-1.178,3.515,-9.163,-0.098,0.06,-0.013,81.84,0.0,26.2,31,1,1
10:53:09.737,VIGILE,1,177.05,-5.74,0.099,-1.448,2.816,-8.825,-0.164,0.06,-0.022,81.84,0.0,26.2,31,1,1
10:53:10.237,VIGILE,1,177.99,-5.05,0.043,-1.585,3.187,-9.041,-0.11,0.058,-0.045,81.84,0.0,26.2,31,1,1
10:53:10.737,SONNOLENZA,1,-179.21,-10.69,0.258,-0.883,2.861,-8.258,-0.193,0.13,-0.047,81.84,0.0,26.2,31,1,1
10:53:11.237,SONNOLENZA,1,-169.17,-23.19,0.109,-1.221,3.031,-9.38,-0.112,0.047,-0.033,81.84,0.0,26.2,31,1,1
10:53:11.737,SONNOLENZA,1,-176.37,-11.89,0.247,-1.087,3.424,-9.239,-0.091,0.056,-0.018,81.84,0.0,26.2,31,1,1
10:53:12.238,SONNOLENZA,1,-177.52,-12.38,0.253,-0.95,2.698,-8.863,-0.155,0.102,-0.027,81.84,0.0,26.2,31,1,1
10:53:12.738,SONNOLENZA,1,-173.39,-11.81,0.105,-1.111,3.057,-9.014,-0.113,0.057,-0.026,81.84,0.0,26.2,31,1,1
10:53:13.238,SONNOLENZA,1,-169.31,-34.65,0.19,-1.202,3.256,-8.887,-0.139,0.055,-0.038,81.84,0.0,26.2,31,1,1
10:53:13.738,SONNOLENZA,1,-176.55,-15.38,0.255,-1.216,2.964,-9.227,-0.191,0.073,-0.038,81.84,0.0,26.1,31,1,1
10:53:14.238,SONNOLENZA,1,-175.35,-13.71,0.276,-1.094,2.693,-9.036,-0.148,0.072,-0.04,81.84,0.0,26.1,31,1,1
10:53:14.738,SONNOLENZA,1,-176.68,-9.1,0.147,-1.724,3.208,-8.894,-0.133,0.067,-0.016,81.84,0.0,26.1,31,1,1
10:53:15.238,SONNOLENZA,1,-173.47,-13.8,0.292,-0.982,3.156,-9.282,-0.13,0.06,-0.027,81.84,0.0,26.1,31,1,1
10:53:15.738,SONNOLENZA,1,-175.55,-11.89,0.277,-1.465,3.141,-8.662,-0.133,0.082,-0.023,81.84,0.0,26.1,31,1,1
10:53:16.238,SONNOLENZA,1,-178.79,-11.33,0.265,-2.152,3.543,-8.787,-0.135,0.052,-0.02,81.84,0.0,26.1,31,1,1
10:53:16.738,SONNOLENZA,1,-166.44,-26.07,0.104,-3.11,3.807,-8.973,-0.108,0.074,-0.007,81.84,0.0,26.1,31,1,1
10:53:17.238,SONNOLENZA,1,-169.2,-32.4,0.306,-2.193,3.393,-8.526,-0.086,0.031,0.002,81.84,0.0,26.1,31,1,1
10:53:17.738,SONNOLENZA,1,-169.92,-35.86,0.313,-1.918,3.735,-8.514,-0.159,0.086,-0.029,81.84,0.0,26.1,31,1,1
10:53:18.238,SONNOLENZA,1,-165.82,-31.62,0.218,-2.509,3.642,-8.222,-0.165,0.056,-0.031,81.84,0.0,26.1,31,1,1
10:53:18.738,SONNOLENZA,1,-146.71,-18.4,0.109,-3.242,4.319,-8.461,-0.143,0.07,-0.027,81.84,0.0,26.1,31,1,1
10:53:19.238,SONNOLENZA,1,-143.45,-14.44,0.14,-4.039,4.29,-7.977,-0.126,0.085,-0.019,81.84,0.0,26.1,31,1,1
10:53:19.738,SONNOLENZA,1,-143.21,-15.1,0.138,-0.565,3.06,-9.529,-0.119,0.094,-0.011,81.84,0.0,26.1,31,1,1
10:53:20.239,SONNOLENZA,0,0.0,0.0,0.0,-1.073,3.139,-8.933,-0.14,0.069,-0.026,81.84,0.0,26.1,31,1,1
10:53:20.739,SONNOLENZA,1,159.96,4.09,0.088,-1.116,3.172,-9.155,-0.138,0.068,-0.02,81.84,0.0,26.1,31,1,1
10:53:21.239,SONNOLENZA,1,173.33,-6.4,0.022,-0.814,3.017,-9.038,-0.142,0.071,-0.02,81.84,0.0,26.1,31,1,1
10:53:21.739,SONNOLENZA,1,178.88,-13.85,0.106,-0.977,3.211,-9.055,-0.137,0.067,-0.022,81.84,0.0,26.1,31,1,1
10:53:22.239,SONNOLENZA,1,178.62,-14.98,0.272,-0.96,3.062,-8.995,-0.138,0.076,-0.02,81.84,0.0,26.1,31,1,1
10:53:22.739,SONNOLENZA,1,176.54,-15.94,0.099,-0.855,3.163,-9.215,-0.136,0.066,-0.02,81.84,0.0,26.1,31,1,1
10:53:23.239,SONNOLENZA,1,174.7,-16.74,0.069,-0.939,3.038,-8.909,-0.14,0.073,-0.016,81.84,0.0,26.1,31,1,1
10:53:23.739,SONNOLENZA,1,172.26,-14.99,0.037,-1.013,3.287,-9.256,-0.13,0.063,-0.017,81.84,0.0,26.1,31,1,1
10:53:24.240,SONNOLENZA,1,175.88,-16.29,0.287,-0.986,3.077,-9.069,-0.129,0.068,-0.013,81.84,0.0,26.1,31,1,1
10:53:24.740,SONNOLENZA,1,172.74,-7.02,0.218,-1.001,3.261,-9.179,-0.13,0.064,-0.017,81.84,0.0,26.1,31,1,1
10:53:25.240,SONNOLENZA,1,175.1,31.54,0.27,-1.099,3.213,-9.005,-0.13,0.067,-0.019,81.84,0.0,26.1,31,1,1
10:53:25.740,SONNOLENZA,1,168.52,9.52,0.175,-0.922,3.187,-9.129,-0.126,0.071,-0.015,81.84,0.0,26.1,31,1,1
10:53:26.240,SONNOLENZA,1,172.48,-1.22,0.265,-0.919,3.1,-9.23,-0.136,0.058,-0.022,81.84,0.0,26.1,31,1,1
10:53:26.740,SONNOLENZA,1,173.62,-3.55,0.264,-0.797,3.038,-8.588,-0.155,0.095,-0.025,81.84,0.0,26.1,31,1,1
10:53:27.240,VIGILE,1,175.04,-4.28,0.29,-1.07,3.232,-9.354,-0.139,0.072,-0.019,81.84,0.0,26.1,31,1,1
10:53:27.740,VIGILE,1,178.8,-6.81,0.289,0.692,2.409,-9.759,-0.135,0.067,-0.017,81.84,0.0,26.1,31,1,1
10:53:28.240,VIGILE,1,-179.85,-5.71,0.284,0.891,2.444,-9.993,-0.173,0.09,-0.034,81.84,0.0,26.1,31,1,1
10:53:28.740,VIGILE,1,176.61,-6.94,0.093,1.939,2.138,-10.235,-0.136,0.062,-0.029,81.84,0.0,26.1,31,1,1
10:53:29.240,VIGILE,1,-179.6,-2.9,0.294,0.749,2.768,-9.512,-0.167,0.088,-0.032,81.84,0.0,26.1,31,1,1
10:53:29.740,VIGILE,1,179.07,-5.08,0.306,0.769,2.452,-10.056,-0.12,0.048,-0.013,81.84,0.0,26.1,31,1,1
10:53:30.240,VIGILE,1,179.45,-9.94,0.299,-0.055,2.772,-9.651,-0.091,0.089,-0.006,81.84,0.0,26.1,31,1,1
10:53:30.740,VIGILE,1,175.51,-10.22,0.142,-0.663,3.065,-9.323,-0.131,0.03,-0.013,81.84,0.0,26.1,31,1,1
10:53:31.240,VIGILE,1,179.38,-9.47,0.282,-1.489,3.072,-8.909,-0.139,0.069,-0.022,81.84,0.0,26.1,31,1,1
10:53:31.740,VIGILE,1,176.47,-7.94,0.16,-1.176,3.28,-8.918,-0.132,0.062,-0.027,81.84,0.0,26.1,31,1,1
10:53:32.240,VIGILE,1,-179.65,-9.94,0.291,-0.469,3.247,-9.704,-0.115,0.062,-0.019,81.84,0.0,26.1,31,1,1
10:53:32.741,VIGILE,1,-179.6,-7.74,0.288,-0.175,2.459,-9.215,-0.122,0.076,-0.026,81.84,0.0,26.1,31,1,1
10:53:33.241,VIGILE,1,179.41,-5.98,0.297,-0.486,3.081,-8.77,-0.147,0.068,-0.035,81.84,0.0,26.1,31,1,1
10:53:33.741,VIGILE,1,179.48,18.82,0.305,-0.893,2.248,-9.17,-0.177,0.131,-0.113,81.84,0.0,26.1,31,1,1
10:53:34.241,VIGILE,1,179.94,30.27,0.288,0.462,3.788,-9.266,-0.101,0.053,0.026,81.84,0.0,26.1,31,1,1
10:53:34.741,VIGILE,1,179.6,42.8,0.358,1.08,3.828,-8.665,-0.131,0.062,0.042,81.84,0.0,26.1,31,1,1
10:53:35.241,VIGILE,1,171.8,43.04,0.269,-0.127,2.983,-8.832,-0.093,0.05,0.027,81.84,0.0,26.1,31,1,1
10:53:35.741,VIGILE,1,174.85,-12.89,0.25,-0.881,2.923,-8.078,-0.189,0.089,-0.029,81.84,0.0,26.1,31,1,1
10:53:36.241,VIGILE,1,173.98,-6.09,0.281,-1.135,2.772,-9.057,-0.099,0.087,-0.041,81.84,0.0,26.1,31,1,1
10:53:36.741,VIGILE,1,177.28,-10.9,0.273,-0.172,3.084,-8.748,-0.247,0.151,-0.06,81.84,0.0,26.1,31,1,1
10:53:37.241,VIGILE,1,176.22,-2.24,0.28,-0.589,3.144,-10.93,-0.114,0.089,-0.002,81.84,0.0,26.1,31,1,1
10:53:37.741,VIGILE,1,177.06,38.33,0.351,-1.077,3.383,-8.78,-0.128,0.06,-0.008,81.84,0.0,26.1,31,1,1
10:53:38.241,VIGILE,1,175.18,48.33,0.467,-1.128,2.828,-9.084,-0.149,0.068,-0.015,81.84,0.0,26.1,31,1,1
10:53:38.741,VIGILE,1,174.48,-8.01,0.099,-0.802,2.38,-8.681,-0.058,-0.011,-0.017,81.84,0.0,26.1,31,1,1
10:53:39.241,VIGILE,1,176.09,-16.35,0.27,-0.63,3.314,-9.507,-0.052,0.029,0.002,81.84,0.0,26.1,31,1,1
10:53:39.741,VIGILE,1,174.87,-18.1,0.285,-0.702,2.744,-8.892,-0.167,0.09,-0.014,81.84,0.0,26.1,31,1,1
10:53:40.241,VIGILE,1,173.26,-16.23,0.284,-0.697,2.947,-8.76,-0.183,0.09,-0.024,81.84,0.0,26.1,31,1,1
10:53:40.742,VIGILE,1,175.06,-18.78,0.266,-0.95,3.309,-9.1,-0.11,0.076,-0.014,81.84,0.0,26.1,31,1,1
10:53:41.242,VIGILE,1,175.81,-13.87,0.262,-0.948,3.268,-9.316,-0.082,0.045,-0.003,81.84,0.0,26.0,31,1,1
10:53:41.742,VIGILE,1,171.9,-6.71,0.276,-1.372,3.603,-9.627,-0.109,0.041,-0.02,81.84,0.0,26.0,31,1,1
10:53:42.242,VIGILE,1,175.75,-11.57,0.28,-0.979,3.067,-8.997,-0.132,0.086,-0.017,81.84,0.0,26.0,31,1,1
10:53:42.742,VIGILE,1,174.4,-9.24,0.26,-1.125,2.768,-9.285,-0.113,0.081,-0.016,81.84,0.0,26.0,31,1,1
10:53:43.242,VIGILE,1,175.58,-10.72,0.244,-0.907,3.177,-9.167,-0.094,0.061,-0.015,81.84,0.0,26.0,31,1,1
10:53:43.742,VIGILE,1,174.46,-10.09,0.243,-0.694,2.746,-9.081,-0.152,0.081,-0.031,81.84,0.0,26.0,31,1,1
10:53:44.242,VIGILE,1,174.49,-11.26,0.263,-0.831,3.397,-9.12,-0.12,0.056,-0.025,81.84,0.0,26.0,31,1,1
10:53:44.742,VIGILE,1,174.55,-11.25,0.254,-1.073,3.328,-9.232,-0.098,0.057,-0.011,81.84,0.0,26.0,31,1,1
10:53:45.242,VIGILE,1,174.35,-9.47,0.229,-1.001,2.878,-9.208,-0.114,0.055,-0.01,81.84,0.0,26.0,31,1,1
10:53:45.742,VIGILE,1,174.76,-9.17,0.262,-0.706,3.244,-9.91,-0.084,0.056,-0.003,81.84,0.0,26.0,31,1,1
10:53:46.242,VIGILE,1,172.89,-8.11,0.264,-0.536,3.007,-8.861,-0.115,0.048,-0.013,81.84,0.0,26.0,31,1,1
10:53:46.742,VIGILE,1,176.05,-8.15,0.272,0.06,3.153,-9.062,-0.164,0.08,-0.014,81.84,0.0,26.0,31,1,1
10:53:47.242,VIGILE,1,175.42,-7.05,0.184,-0.524,2.471,-9.244,-0.127,0.082,-0.013,81.84,0.0,26.0,31,1,1
10:53:47.742,VIGILE,1,174.45,-6.73,0.25,-0.984,3.773,-9.321,-0.094,0.063,-0.009,81.84,0.0,26.0,31,1,1
10:53:48.242,VIGILE,1,176.44,-8.65,0.261,-0.539,2.818,-9.366,-0.115,0.058,-0.014,81.84,0.0,26.0,31,1,1
10:53:48.743,VIGILE,1,175.33,-8.1,0.263,0.103,3.63,-8.849,-0.099,0.05,0.003,81.84,0.0,26.0,31,1,1
10:53:49.243,VIGILE,1,175.06,-11.17,0.259,-1.13,3.608,-9.136,-0.045,0.051,-0.006,81.84,0.0,26.0,31,1,1
10:53:49.743,VIGILE,1,178.35,-10.27,0.268,-2.023,3.328,-8.911,-0.045,0.181,-0.018,81.84,0.0,26.0,31,1,1
10:53:50.243,VIGILE,1,177.77,-10.62,0.263,0.316,3.232,-9.773,-0.259,0.088,-0.056,81.84,0.0,26.0,31,1,1
10:53:50.743,VIGILE,1,176.25,-10.76,0.254,-1.41,3.402,-9.807,-0.006,-0.008,-0.004,81.84,0.0,26.0,31,1,1
10:53:51.243,VIGILE,1,177.79,-8.89,0.299,0.139,-3.273,-7.295,-0.2,0.238,-0.035,81.84,0.0,26.0,31,1,1
10:53:51.743,VIGILE,1,173.84,-6.26,0.257,-1.073,3.632,-7.815,-0.231,0.075,-0.04,81.84,0.0,26.0,31,1,1
10:53:52.243,VIGILE,1,175.8,-10.45,0.269,-1.712,3.713,-8.219,-0.22,0.124,-0.065,81.84,0.0,26.0,31,1,1
10:53:52.743,VIGILE,1,174.06,-6.99,0.242,-1.52,3.613,-8.952,-0.147,0.047,-0.02,81.84,0.0,26.0,31,1,1
10:53:53.243,VIGILE,1,175.85,-10.35,0.259,-1.161,3.517,-9.103,-0.116,0.059,0.002,81.84,0.0,26.0,31,1,1
10:53:53.743,VIGILE,1,177.04,-12.65,0.255,-2.054,2.892,-9.112,-0.098,0.137,0.027,81.84,0.0,26.0,31,1,1
10:53:54.243,VIGILE,1,173.77,-8.04,0.258,-1.602,3.249,-8.973,-0.203,0.095,-0.048,81.84,0.0,26.0,31,1,1
10:53:54.743,VIGILE,1,174.78,-8.94,0.259,-1.982,2.962,-9.804,-0.127,0.076,-0.022,81.84,0.0,26.0,31,1,1
10:53:55.243,VIGILE,1,173.74,-7.91,0.16,-1.956,1.719,-8.973,-0.106,0.062,-0.013,81.84,0.0,26.0,31,1,1
10:53:55.743,VIGILE,1,177.35,-11.42,0.247,-2.947,4.334,-7.578,0.202,0.025,0.077,81.84,0.0,26.0,31,1,1
10:53:56.244,VIGILE,1,174.79,-10.95,0.248,-1.293,3.232,-9.364,-0.148,0.054,0.03,81.84,0.0,26.0,31,1,1
10:53:56.744,VIGILE,1,175.15,-11.48,0.267,-1.616,3.649,-9.246,-0.083,0.053,-0.005,81.84,0.0,26.0,31,1,1
10:53:57.244,VIGILE,1,174.87,-11.45,0.254,-1.453,2.164,-8.983,-0.131,0.056,0.026,81.84,0.0,26.0,31,1,1
10:53:57.744,VIGILE,1,173.61,-8.01,0.237,-1.817,3.16,-8.689,-0.078,0.04,-0.024,81.84,0.0,26.0,31,1,1
10:53:58.244,VIGILE,1,175.51,-11.4,0.24,-1.391,3.405,-9.194,-0.105,0.067,-0.05,81.84,0.0,26.0,31,1,1
10:53:58.744,VIGILE,1,169.28,-7.23,0.236,-1.508,1.688,-8.741,-0.153,0.052,-0.025,81.84,0.0,26.0,31,1,1
10:53:59.244,VIGILE,1,172.84,-4.18,0.219,-1.599,4.487,-7.345,-0.242,0.129,-0.095,81.84,0.0,26.0,31,1,1
10:53:59.744,VIGILE,1,172.44,-2.76,0.152,-2.083,2.701,-9.227,-0.156,0.06,-0.069,81.84,0.0,26.0,31,1,1
10:54:00.244,VIGILE,1,173.11,-6.54,0.146,-1.844,3.539,-8.768,-0.115,0.055,-0.03,81.84,0.0,26.0,31,1,1
10:54:00.744,VIGILE,1,171.86,-7.31,0.231,-2.756,2.835,-9.136,-0.144,0.092,-0.018,81.84,0.0,26.0,31,1,1
10:54:01.244,VIGILE,1,168.3,-5.0,0.222,-4.269,4.152,-8.078,-0.188,0.06,-0.038,81.84,0.0,26.0,31,1,1
10:54:01.744,VIGILE,1,173.35,0.04,0.267,-4.817,4.336,-8.107,-0.154,0.089,-0.021,81.84,0.0,26.0,31,1,1
10:54:02.244,VIGILE,1,175.11,-1.3,0.271,-3.378,3.941,-8.399,-0.131,0.073,-0.042,81.84,0.0,26.0,31,1,1
10:54:02.744,VIGILE,1,179.61,-2.84,0.216,-3.273,3.735,-8.44,-0.128,0.077,-0.02,81.84,0.0,26.0,31,1,1
10:54:03.244,VIGILE,1,173.89,-8.39,0.235,-1.298,2.916,-8.83,-0.148,0.074,-0.022,81.84,0.0,26.0,31,1,1
10:54:03.744,VIGILE,1,172.48,-0.49,0.21,-1.135,2.964,-9.151,-0.128,0.069,-0.017,81.84,0.0,26.0,31,1,1
10:54:04.245,VIGILE,1,171.36,-7.97,0.229,-1.022,2.761,-8.897,-0.128,0.069,-0.022,81.84,0.0,26.0,31,1,1
10:54:04.745,VIGILE,0,0.0,0.0,0.0,-1.049,3.129,-9.282,-0.123,0.069,-0.023,81.84,0.0,26.0,31,1,1
10:54:05.245,VIGILE,1,166.7,70.92,0.672,-1.085,2.811,-9.325,-0.112,0.069,-0.018,81.84,0.0,26.0,31,1,1
10:54:05.745,VIGILE,1,169.37,70.56,0.474,-1.092,2.89,-9.194,-0.12,0.067,-0.016,81.84,0.0,26.0,31,1,1
10:54:06.245,VIGILE,1,175.41,70.95,0.732,-1.077,2.962,-9.16,-0.137,0.07,-0.018,81.84,0.0,26.0,31,1,1
10:54:06.745,DISTRAZIONE,1,174.84,71.5,0.55,-0.855,2.804,-9.199,-0.133,0.066,-0.015,81.84,0.0,26.0,31,1,1
10:54:07.245,DISTRAZIONE,1,174.84,71.45,0.503,-1.135,2.907,-9.323,-0.129,0.072,-0.02,81.84,0.0,26.0,31,1,1
10:54:07.745,DISTRAZIONE,1,172.77,70.28,0.466,-1.027,2.811,-8.942,-0.128,0.067,-0.014,81.84,0.0,26.0,31,1,1
10:54:08.245,DISTRAZIONE,1,173.85,70.08,0.646,-1.087,2.883,-9.448,-0.137,0.073,-0.022,81.84,0.0,26.0,31,1,1
10:54:08.745,DISTRAZIONE,1,173.89,69.51,0.588,-1.065,2.772,-9.019,-0.144,0.071,-0.019,81.84,0.0,26.0,31,1,1
10:54:09.245,DISTRAZIONE,1,175.98,68.46,0.65,-1.101,2.983,-9.213,-0.129,0.07,-0.014,81.84,0.0,26.0,31,1,1
10:54:09.745,DISTRAZIONE,1,177.21,69.44,0.664,-1.039,2.935,-9.234,-0.132,0.064,-0.019,81.84,0.0,26.0,31,1,1
10:54:10.245,DISTRAZIONE,1,175.85,69.78,0.643,-0.991,2.772,-9.179,-0.132,0.066,-0.019,81.84,0.0,26.0,31,1,1
10:54:10.745,DISTRAZIONE,1,173.05,70.87,0.655,-1.044,2.964,-9.412,-0.135,0.069,-0.026,81.84,0.0,26.0,31,1,1
10:54:11.245,DISTRAZIONE,1,168.58,67.16,0.593,-1.118,2.828,-8.976,-0.135,0.071,-0.02,81.84,0.0,26.0,31,1,1
10:54:11.745,DISTRAZIONE,1,171.77,67.31,0.644,-1.092,2.95,-9.412,-0.133,0.071,-0.019,81.84,0.0,26.0,31,1,1
10:54:12.246,DISTRAZIONE,1,-172.46,63.99,0.783,-1.178,2.787,-9.079,-0.134,0.067,-0.018,81.84,0.0,26.0,31,1,1
10:54:12.746,DISTRAZIONE,1,-169.99,52.66,0.275,-0.984,2.842,-9.316,-0.128,0.071,-0.021,81.84,0.0,26.0,31,1,1
10:54:13.246,DISTRAZIONE,1,-173.89,37.79,0.137,-1.013,2.904,-9.131,-0.14,0.063,-0.017,81.84,0.0,26.0,31,1,1
10:54:13.746,DISTRAZIONE,1,-173.98,36.32,0.326,-1.027,2.837,-9.261,-0.127,0.068,-0.017,81.84,0.0,26.0,31,1,1
10:54:14.246,DISTRAZIONE,1,-170.43,-15.71,0.232,-1.065,2.94,-9.261,-0.135,0.068,-0.022,81.84,0.0,26.0,31,1,1
10:54:14.746,DISTRAZIONE,1,-169.04,-56.99,0.316,-1.147,2.782,-9.043,-0.143,0.071,-0.019,81.84,0.0,26.0,31,1,1
10:54:15.246,DISTRAZIONE,1,-166.51,-68.01,0.391,-1.063,3.055,-9.206,-0.114,0.061,-0.011,81.84,0.0,26.0,31,1,1
10:54:15.746,DISTRAZIONE,1,-178.03,-39.99,0.349,-1.14,2.842,-9.33,-0.14,0.07,-0.019,81.84,0.0,26.0,31,1,1
10:54:16.246,DISTRAZIONE,1,177.38,-42.72,0.404,-0.879,2.808,-9.172,-0.121,0.063,-0.013,81.84,0.0,26.0,31,1,1
10:54:16.746,DISTRAZIONE,1,177.05,-67.73,0.353,-1.154,2.945,-9.23,-0.132,0.065,-0.018,81.84,0.0,26.0,31,1,1
10:54:17.246,DISTRAZIONE,1,-168.17,-65.26,0.387,-1.14,2.818,-9.175,-0.137,0.068,-0.016,81.84,0.0,26.0,31,1,1
10:54:17.746,DISTRAZIONE,1,-179.92,-30.08,0.334,-0.962,2.919,-9.263,-0.123,0.063,-0.018,81.84,0.0,26.0,31,1,1
10:54:18.246,DISTRAZIONE,1,-171.18,-33.11,0.294,-1.207,2.804,-9.22,-0.124,0.064,-0.016,81.84,0.0,26.0,31,1,1
10:54:18.746,DISTRAZIONE,1,-165.77,-32.38,0.313,-0.876,3.01,-9.043,-0.117,0.059,-0.014,81.84,0.0,26.0,31,1,1
10:54:19.246,DISTRAZIONE,1,177.85,-15.53,0.287,-1.209,2.782,-9.431,-0.13,0.067,-0.018,81.84,0.0,26.0,31,1,1
10:54:19.746,DISTRAZIONE,1,178.86,32.83,0.158,-1.013,2.816,-9.206,-0.118,0.066,-0.017,81.84,0.0,26.0,31,1,1
10:54:20.247,DISTRAZIONE,1,176.71,20.73,0.267,-1.118,2.966,-9.258,-0.128,0.069,-0.018,81.84,0.0,26.0,31,1,1
10:54:20.747,DISTRAZIONE,1,161.19,17.05,0.17,-1.092,2.799,-9.201,-0.131,0.07,-0.021,81.84,0.0,26.0,31,1,1
10:54:21.247,MALORE,1,156.72,15.37,0.184,-1.061,2.94,-9.282,-0.123,0.064,-0.02,81.84,0.0,26.0,31,1,1
10:54:21.747,MALORE,1,157.32,6.98,0.134,-1.149,2.804,-9.134,-0.142,0.07,-0.019,81.84,0.0,26.0,31,1,1
10:54:22.247,MALORE,1,154.89,9.1,0.107,-0.912,3.055,-9.203,-0.126,0.068,-0.02,81.84,0.0,26.0,31,1,1
10:54:22.747,MALORE,1,157.06,9.12,0.063,-1.207,2.842,-9.323,-0.126,0.066,-0.021,81.84,0.0,26.0,31,1,1
10:54:23.247,MALORE,1,158.2,11.12,0.098,-0.934,2.768,-9.134,-0.113,0.062,-0.013,81.84,0.0,26.0,31,1,1
10:54:23.747,MALORE,1,162.8,23.7,0.053,-1.125,2.971,-9.251,-0.126,0.068,-0.02,81.84,0.0,26.0,31,1,1
10:54:24.247,MALORE,0,0.0,0.0,0.0,-1.075,2.775,-9.208,-0.128,0.069,-0.015,81.84,0.0,26.0,31,1,1
10:54:24.747,MALORE,1,-147.17,50.49,0.269,-1.018,2.914,-9.256,-0.13,0.067,-0.018,81.84,0.0,26.0,31,1,1
10:54:25.247,MALORE,1,-134.77,51.9,0.31,-1.156,2.751,-9.067,-0.138,0.068,-0.015,81.84,0.0,26.0,31,1,1
10:54:25.747,MALORE,1,-134.78,51.6,0.345,-1.025,3.072,-9.258,-0.116,0.065,-0.013,81.84,0.0,26.0,31,1,1
10:54:26.247,MALORE,1,-132.95,49.61,0.245,-1.156,2.782,-9.074,-0.143,0.069,-0.019,81.84,0.0,26.0,31,1,1
10:54:26.747,MALORE,1,-132.06,50.65,0.271,-0.871,2.813,-9.124,-0.128,0.065,-0.018,81.84,0.0,26.0,31,1,1
10:54:27.247,MALORE,1,-129.63,48.36,0.28,-1.123,3.124,-9.251,-0.123,0.068,-0.015,81.84,0.0,26.0,31,1,1
10:54:27.747,MALORE,1,-135.16,50.54,0.351,-1.099,2.796,-9.22,-0.124,0.07,-0.018,81.84,0.0,26.0,31,1,1
10:54:28.248,MALORE,1,-131.81,50.21,0.282,-1.039,2.938,-9.28,-0.129,0.069,-0.02,81.84,0.0,26.0,31,1,1
10:54:28.748,MALORE,1,-135.41,48.67,0.222,-1.14,2.734,-9.036,-0.14,0.074,-0.022,81.84,0.0,26.0,31,1,1
10:54:29.248,MALORE,1,-135.63,51.7,0.381,-0.984,3.055,-9.222,-0.125,0.069,-0.016,81.84,0.0,26.0,31,1,1
10:54:29.748,MALORE,1,-135.25,51.68,0.322,-1.152,2.82,-9.306,-0.136,0.065,-0.019,81.84,0.0,26.0,31,1,1
10:54:30.248,MALORE,1,-136.43,54.68,0.231,-1.003,2.844,-9.06,-0.117,0.066,-0.014,81.84,0.0,26.0,31,1,1
10:54:30.748,MALORE,1,-139.13,57.85,0.305,-1.132,3.01,-9.21,-0.127,0.073,-0.027,81.84,0.0,26.0,31,1,1
10:54:31.248,MALORE,0,0.0,0.0,0.0,-1.109,2.859,-9.163,-0.128,0.062,-0.018,81.84,0.0,26.0,31,1,1
10:54:31.748,MALORE,1,166.48,3.56,0.24,-0.941,2.933,-9.292,-0.143,0.071,-0.02,81.84,0.0,26.0,31,1,1
10:54:32.248,MALORE,1,168.68,-1.52,0.228,-1.132,2.813,-9.263,-0.133,0.066,-0.022,81.84,0.0,26.0,31,1,1
10:54:32.748,MALORE,1,-148.68,19.91,0.196,-0.826,2.928,-9.048,-0.127,0.064,-0.012,81.84,0.0,26.0,31,1,1
10:54:33.248,MALORE,0,0.0,0.0,0.0,-1.156,2.899,-9.452,-0.131,0.072,-0.027,81.84,0.0,26.0,31,1,1
10:54:33.748,MALORE,1,-141.75,47.08,0.246,-0.929,2.801,-9.055,-0.126,0.072,-0.02,81.84,0.0,26.0,31,1,1
10:54:34.248,MALORE,1,-137.69,49.47,0.272,-1.058,2.942,-9.127,-0.137,0.068,-0.018,81.84,0.0,26.0,31,1,1
10:54:34.748,MALORE,1,-131.53,47.73,0.273,-1.118,3.024,-9.184,-0.13,0.067,-0.019,81.84,0.0,26.0,31,1,1
10:54:35.248,MALORE,1,-131.05,48.15,0.358,-0.919,2.799,-9.237,-0.128,0.061,-0.02,81.84,0.0,26.0,31,1,1
10:54:35.748,MALORE,1,-130.73,49.12,0.364,-1.008,2.907,-9.191,-0.136,0.076,-0.016,81.84,0.0,26.0,31,1,1
10:54:36.249,MALORE,1,-130.97,49.19,0.356,-1.051,2.787,-8.961,-0.13,0.066,-0.011,81.84,0.0,26.0,31,1,1
10:54:36.749,MALORE,1,-130.57,48.65,0.354,-1.034,2.976,-9.416,-0.14,0.071,-0.021,81.84,0.0,26.0,31,1,1
10:54:37.249,MALORE,1,-131.8,48.79,0.343,-1.02,2.761,-9.151,-0.145,0.069,-0.024,81.84,0.0,26.0,31,1,1
10:54:37.749,MALORE,1,-132.54,50.17,0.362,-0.828,2.899,-9.091,-0.133,0.073,-0.018,81.84,0.0,26.0,31,1,1
10:54:38.249,MALORE,1,-130.8,49.61,0.342,-1.171,3.012,-9.268,-0.123,0.064,-0.017,81.84,0.0,26.0,31,1,1
10:54:38.749,MALORE,1,-130.66,51.36,0.419,-1.082,2.746,-9.213,-0.129,0.066,-0.011,81.84,0.0,26.0,31,1,1
10:54:39.249,MALORE,1,-166.91,21.88,0.243,-0.958,2.887,-9.179,-0.128,0.07,-0.018,81.84,0.0,26.0,31,1,1
10:54:39.749,MALORE,0,0.0,0.0,0.0,-1.183,2.969,-9.287,-0.126,0.063,-0.027,81.84,0.0,26.0,31,1,1
10:54:40.249,MALORE,1,168.67,14.91,0.244,-0.852,2.947,-9.155,-0.115,0.062,-0.015,81.84,0.0,26.0,31,1,1
10:54:40.749,MALORE,1,171.32,5.11,0.251,-1.073,2.887,-9.404,-0.138,0.071,-0.026,81.84,0.0,26.0,31,1,1
10:54:41.249,MALORE,1,170.11,1.98,0.227,-0.977,2.713,-8.921,-0.137,0.066,-0.02,81.84,0.0,26.0,31,1,1
10:54:41.749,MALORE,1,167.48,2.65,0.232,-1.046,3.005,-9.165,-0.131,0.07,-0.022,81.84,0.0,26.0,31,1,1
10:54:42.249,VIGILE,1,170.42,3.65,0.244,-1.161,3.01,-9.273,-0.128,0.066,-0.017,81.84,0.0,26.0,31,1,1
10:54:42.749,VIGILE,1,170.52,1.59,0.237,-1.063,2.674,-9.17,-0.133,0.075,-0.022,81.84,0.0,26.0,31,1,1
10:54:43.249,VIGILE,1,169.71,0.43,0.248,-1.003,2.897,-9.256,-0.14,0.075,-0.021,81.84,0.0,26.0,31,1,1
10:54:43.749,VIGILE,1,171.5,0.13,0.231,-1.123,2.828,-8.909,-0.142,0.071,-0.02,81.84,0.0,25.9,31,1,1
10:54:44.250,VIGILE,1,172.05,-4.59,0.268,-0.958,3.021,-9.191,-0.121,0.062,-0.018,81.84,0.0,25.9,31,1,1
10:54:44.750,VIGILE,1,173.8,-7.09,0.256,-1.168,2.835,-9.373,-0.133,0.06,-0.014,81.84,0.0,25.9,31,1,1
10:54:45.250,VIGILE,1,174.54,-6.36,0.246,-0.97,2.851,-9.124,-0.113,0.06,-0.008,81.84,0.0,25.9,31,1,1
10:54:45.750,VIGILE,1,175.11,-8.88,0.239,-1.082,3.007,-9.254,-0.135,0.069,-0.018,81.84,0.0,25.9,31,1,1
10:54:46.250,VIGILE,1,174.46,-10.82,0.22,-1.171,2.835,-9.165,-0.131,0.072,-0.024,81.84,0.0,25.9,31,1,1
10:54:46.750,VIGILE,1,173.82,-9.16,0.24,-0.967,2.818,-9.177,-0.123,0.067,-0.014,81.84,0.0,25.9,31,1,1
10:54:47.250,VIGILE,1,173.95,-8.84,0.25,-1.053,2.935,-9.357,-0.128,0.069,-0.019,81.84,0.0,25.9,31,1,1
10:54:47.750,VIGILE,1,172.38,-7.73,0.245,-1.068,2.768,-8.928,-0.141,0.071,-0.016,81.84,0.0,25.9,31,1,1
10:54:48.250,VIGILE,1,172.13,-5.39,0.243,-1.034,2.998,-9.321,-0.125,0.069,-0.019,81.84,0.0,25.9,31,1,1
10:54:48.750,VIGILE,1,171.99,-6.76,0.252,-1.207,2.801,-9.321,-0.14,0.071,-0.019,81.84,0.0,25.9,31,1,1
10:54:49.250,VIGILE,1,173.16,-1.26,0.256,-0.929,2.823,-9.177,-0.125,0.064,-0.015,81.84,0.0,25.9,31,1,1
10:54:49.750,VIGILE,1,173.2,-2.71,0.257,-1.08,2.957,-9.242,-0.131,0.067,-0.017,81.84,0.0,25.9,31,1,1
10:54:50.250,VIGILE,1,173.56,-1.36,0.266,-1.176,2.744,-9.206,-0.131,0.072,-0.018,81.84,0.0,25.9,31,1,1
10:54:50.750,VIGILE,1,173.64,-4.79,0.245,-0.979,2.976,-9.309,-0.133,0.072,-0.018,81.84,0.0,25.9,31,1,1
10:54:51.250,VIGILE,1,175.54,-3.75,0.251,-1.068,2.784,-9.036,-0.146,0.073,-0.02,81.84,0.0,25.9,31,1,1
10:54:51.751,VIGILE,1,175.11,-3.47,0.254,-0.845,2.964,-9.086,-0.121,0.066,-0.018,81.84,0.0,25.9,31,1,1
10:54:52.251,VIGILE,1,175.32,-4.4,0.253,-1.144,2.859,-9.467,-0.134,0.068,-0.024,81.84,0.0,25.9,31,1,1
10:54:52.751,VIGILE,1,174.91,-3.72,0.258,-0.891,2.701,-9.014,-0.138,0.069,-0.021,81.84,0.0,25.9,31,1,1
10:54:53.251,VIGILE,1,175.01,-4.36,0.274,-0.97,2.94,-9.072,-0.134,0.065,-0.015,81.84,0.0,25.9,31,1,1
10:54:53.751,VIGILE,1,174.64,-3.34,0.265,-1.243,3.019,-9.261,-0.128,0.064,-0.013,81.84,0.0,25.9,31,1,1
10:54:54.251,VIGILE,1,174.73,-2.1,0.271,-0.874,2.732,-9.242,-0.129,0.062,-0.017,81.84,0.0,25.9,31,1,1
10:54:54.751,VIGILE,1,174.53,-1.99,0.277,-0.955,2.837,-9.4,-0.126,0.065,-0.018,81.84,0.0,25.9,31,1,1
10:54:55.251,VIGILE,1,175.54,-4.42,0.263,-1.147,2.741,-8.93,-0.152,0.074,-0.021,81.84,0.0,25.9,31,1,1
10:54:55.751,VIGILE,1,175.61,-5.73,0.264,-1.027,3.05,-9.278,-0.127,0.069,-0.02,81.84,0.0,25.9,31,1,1
10:54:56.251,VIGILE,1,175.59,-1.78,0.242,-1.123,2.746,-9.165,-0.143,0.065,-0.022,81.84,0.0,25.9,31,1,1
10:54:56.751,VIGILE,1,174.53,-4.31,0.074,-0.912,2.808,-9.153,-0.123,0.066,-0.019,81.84,0.0,25.9,31,1,1
10:54:57.251,VIGILE,1,176.14,-4.97,0.239,-1.034,3.062,-9.222,-0.138,0.07,-0.018,81.84,0.0,25.9,31,1,1
10:54:57.751,VIGILE,1,175.75,-3.62,0.232,-1.204,2.772,-9.203,-0.134,0.072,-0.013,81.84,0.0,25.9,31,1,1
10:54:58.252,VIGILE,1,175.91,-4.24,0.247,-1.034,2.952,-9.294,-0.123,0.064,-0.015,81.84,0.0,25.9,31,1,1
10:54:58.752,VIGILE,1,175.99,-3.18,0.264,-1.101,2.878,-9.249,-0.137,0.073,-0.026,81.84,0.0,25.8,31,1,1
10:54:59.252,VIGILE,1,175.6,-5.23,0.261,-0.948,2.954,-9.129,-0.115,0.066,-0.017,81.84,0.0,25.8,31,1,1
10:54:59.752,VIGILE,1,175.81,-6.56,0.257,-1.247,2.808,-9.467,-0.136,0.067,-0.016,81.84,0.0,25.8,31,1,1
10:55:00.252,VIGILE,1,176.82,-7.0,0.268,-0.941,2.784,-9.115,-0.122,0.066,-0.015,81.84,0.0,25.8,31,1,1
10:55:00.752,VIGILE,1,175.9,-4.76,0.254,-1.063,2.986,-9.285,-0.137,0.069,-0.017,81.84,0.0,25.8,31,1,1
10:55:01.252,VIGILE,1,175.67,-6.81,0.101,-1.25,2.825,-9.191,-0.135,0.069,-0.021,81.84,0.0,25.8,31,1,1
10:55:01.752,VIGILE,1,178.6,-2.67,0.273,-1.027,2.851,-9.313,-0.122,0.066,-0.017,81.84,0.0,25.8,31,1,1
10:55:02.252,VIGILE,1,177.71,10.7,0.275,-1.049,2.981,-9.407,-0.131,0.068,-0.024,81.84,0.0,25.8,31,1,1
10:55:02.752,VIGILE,1,179.43,-8.3,0.272,-1.238,2.837,-9.1,-0.141,0.07,-0.021,81.84,0.0,25.8,31,1,1
10:55:03.252,VIGILE,1,177.05,0.48,0.283,-0.912,2.88,-9.084,-0.116,0.057,-0.014,81.84,0.0,25.8,31,1,1
10:55:03.752,VIGILE,1,176.11,-5.21,0.062,-1.049,2.921,-9.534,-0.135,0.068,-0.018,81.84,0.0,25.8,32,1,1
10:55:04.252,VIGILE,1,177.18,-2.95,0.273,-1.015,2.691,-9.024,-0.147,0.065,-0.02,81.84,0.0,25.8,32,1,1
10:55:04.752,VIGILE,1,177.14,-8.41,0.135,-0.86,2.842,-9.084,-0.126,0.063,-0.019,81.84,0.0,25.8,32,1,1
10:55:05.252,VIGILE,1,177.69,-4.39,0.234,-1.046,2.964,-9.23,-0.138,0.07,-0.017,81.84,0.0,25.8,32,1,1
10:55:05.752,VIGILE,1,176.39,-37.23,0.329,-1.195,2.931,-9.208,-0.134,0.066,-0.019,81.84,0.0,25.8,32,1,1
10:55:06.252,VIGILE,1,174.69,-32.89,0.312,-0.797,2.653,-9.263,-0.145,0.072,-0.019,81.84,0.0,25.8,32,1,1
10:55:06.753,VIGILE,1,178.67,-22.49,0.248,-0.955,2.916,-9.301,-0.134,0.067,-0.019,81.84,0.0,25.8,32,1,1
10:55:07.253,VIGILE,1,178.49,-13.09,0.252,-1.228,2.789,-9.155,-0.141,0.069,-0.018,81.84,0.0,25.8,32,1,1
10:55:07.753,VIGILE,1,177.84,-12.79,0.275,-0.946,2.971,-9.131,-0.119,0.07,-0.015,81.84,0.0,25.8,32,1,1
10:55:08.253,VIGILE,1,177.61,-7.7,0.253,-1.092,2.892,-9.4,-0.124,0.076,-0.023,81.84,0.0,25.8,32,1,1
10:55:08.753,VIGILE,1,177.7,-10.51,0.239,-1.171,2.784,-9.194,-0.146,0.062,-0.022,81.84,0.0,25.8,32,1,1
10:55:09.253,VIGILE,1,176.04,-7.3,0.25,-0.668,2.78,-9.045,-0.129,0.063,-0.02,81.84,0.0,25.8,32,1,1
10:55:09.753,VIGILE,1,175.58,-9.33,0.251,-1.008,2.995,-9.232,-0.113,0.061,-0.017,81.84,0.0,25.8,32,1,1
10:55:10.253,VIGILE,1,176.23,-8.97,0.243,-1.07,2.902,-9.05,-0.14,0.075,-0.022,81.84,0.0,25.8,32,1,1
10:55:10.753,VIGILE,1,174.39,-0.37,0.266,-0.915,2.863,-9.215,-0.118,0.059,-0.016,81.84,0.0,25.8,32,1,1
10:55:11.253,VIGILE,1,177.6,-4.25,0.221,-1.07,2.871,-9.311,-0.126,0.061,-0.018,81.84,0.0,25.8,32,1,1
10:55:11.753,VIGILE,1,176.43,1.43,0.271,-0.958,2.794,-8.961,-0.12,0.065,-0.017,81.84,0.0,25.8,32,1,1
10:55:12.253,VIGILE,1,176.03,-5.66,0.258,-1.085,3.05,-9.421,-0.139,0.071,-0.019,81.84,0.0,25.8,32,1,1
10:55:12.753,VIGILE,1,174.94,-1.82,0.254,-1.099,2.818,-9.215,-0.141,0.071,-0.016,81.84,0.0,25.8,32,1,1
10:55:13.253,VIGILE,1,174.37,-1.0,0.283,-0.903,2.928,-9.199,-0.129,0.073,-0.026,81.84,0.0,25.8,32,1,1
10:55:13.754,VIGILE,1,170.44,0.6,0.195,-1.199,2.954,-9.249,-0.128,0.06,-0.013,81.84,0.0,25.8,32,1,1
10:55:14.254,VIGILE,1,175.5,-6.17,0.24,-0.366,2.614,-9.196,-0.082,0.07,-0.003,81.84,0.0,25.8,32,1,1
10:55:14.754,VIGILE,1,176.57,-3.9,0.254,1.08,2.119,-9.926,-0.035,0.058,0.002,81.84,0.0,25.8,32,1,1
10:55:15.254,VIGILE,1,175.27,0.1,0.289,-1.348,2.423,-9.033,-0.122,0.041,-0.029,81.84,0.0,25.8,32,1,1
10:55:15.754,VIGILE,1,172.69,-3.69,0.098,-1.276,2.631,-8.847,-0.149,0.065,-0.018,81.84,0.0,25.8,32,1,1
10:55:16.254,VIGILE,1,172.49,0.33,0.255,-0.955,2.818,-9.064,-0.147,0.067,-0.016,81.84,0.0,25.8,32,1,1
10:55:16.754,VIGILE,1,173.69,-2.64,0.244,-0.637,2.37,-9.527,-0.164,0.063,-0.01,81.84,0.0,25.8,32,1,1
10:55:17.254,VIGILE,1,171.04,-0.01,0.242,0.62,3.189,-10.611,-0.177,0.111,-0.01,81.84,0.0,25.8,32,1,1
10:55:17.754,VIGILE,1,177.51,12.31,0.262,0.457,2.564,-9.361,-0.197,0.083,-0.009,81.84,0.0,25.8,32,1,1
10:55:18.254,VIGILE,1,177.26,9.58,0.271,1.336,2.658,-9.012,-0.181,0.071,-0.025,81.84,0.0,25.8,32,1,1
10:55:18.754,VIGILE,1,178.05,-0.01,0.253,1.159,2.543,-9.917,-0.081,0.062,0.013,81.84,0.0,25.8,32,1,1
10:55:19.254,VIGILE,1,176.9,1.42,0.27,0.357,2.55,-9.606,-0.115,-0.009,-0.011,81.84,0.0,25.8,32,1,1
10:55:19.754,VIGILE,1,174.1,-5.17,0.246,-1.626,3.055,-9.91,-0.177,0.004,-0.025,81.84,0.0,25.8,32,1,1
10:55:20.254,VIGILE,1,177.3,-12.91,0.228,-1.346,2.971,-8.789,-0.147,0.07,-0.028,81.84,0.0,25.8,32,1,1
10:55:20.754,VIGILE,1,175.44,-29.05,0.225,-0.189,3.225,-9.649,-0.105,0.056,-0.022,81.84,0.0,25.8,32,1,1
10:55:21.254,VIGILE,1,-173.87,-10.01,0.248,-0.16,2.418,-9.905,-0.119,0.095,0.003,81.84,0.0,25.8,32,1,1
10:55:21.755,VIGILE,1,176.07,-6.85,0.23,-0.69,3.057,-10.013,-0.2,0.101,-0.012,81.84,0.0,25.8,32,1,1
10:55:22.255,VIGILE,1,176.8,-10.94,0.246,-0.74,3.426,-9.311,-0.064,0.066,-0.012,81.84,0.0,25.8,32,1,1
10:55:22.755,VIGILE,1,172.82,-7.27,0.242,-0.326,3.211,-8.66,-0.126,0.058,-0.045,81.84,0.0,25.8,32,1,1
10:55:23.255,VIGILE,1,173.17,-10.2,0.226,-0.649,3.333,-8.976,-0.068,0.071,-0.016,81.84,0.0,25.8,32,1,1
10:55:23.755,VIGILE,1,174.11,-9.61,0.225,-0.045,3.012,-9.701,-0.056,0.07,-0.039,81.84,0.0,25.8,32,1,1
10:55:24.255,VIGILE,1,173.58,-12.08,0.256,-1.575,3.026,-8.993,-0.146,0.022,-0.059,81.84,0.0,25.8,32,1,1
10:55:24.755,VIGILE,1,171.11,-7.88,0.271,-2.167,3.847,-11.111,-0.184,0.128,-0.015,81.84,0.0,25.8,32,1,1
10:55:25.255,VIGILE,1,174.59,-21.97,0.247,0.924,5.485,-6.673,-0.419,0.235,-0.048,81.84,0.0,25.8,32,1,1
10:55:25.755,VIGILE,1,176.97,-17.12,0.248,-0.536,2.863,-8.696,-0.263,0.122,-0.043,81.84,0.0,25.8,32,1,1
10:55:26.255,VIGILE,1,179.67,-13.6,0.275,-0.225,2.83,-9.946,0.035,0.009,-0.011,81.84,0.0,25.8,32,1,1
10:55:26.755,VIGILE,1,177.45,-7.89,0.263,-0.869,3.0,-9.584,-0.136,0.073,-0.062,81.84,0.0,25.8,32,1,1
10:55:27.255,VIGILE,1,176.86,-8.99,0.262,0.124,2.832,-10.015,-0.172,0.091,-0.051,81.84,0.0,25.8,32,1,1
10:55:27.755,VIGILE,1,175.39,-7.88,0.23,-0.297,3.278,-9.838,-0.127,0.094,-0.044,81.84,0.0,25.8,32,1,1
10:55:28.255,VIGILE,1,174.64,-10.61,0.254,0.182,2.844,-9.208,-0.142,0.107,-0.063,81.84,0.0,25.8,32,1,1
10:55:28.755,VIGILE,1,173.58,-9.08,0.253,-0.338,1.64,-8.162,-0.203,0.09,-0.039,81.84,0.0,25.8,32,1,1
10:55:29.255,VIGILE,1,170.64,-9.8,0.246,-1.142,3.409,-9.51,-0.158,0.085,-0.039,81.84,0.0,25.8,32,1,1
10:55:29.756,VIGILE,1,174.71,-15.8,0.256,-1.147,3.28,-8.746,-0.123,0.042,-0.043,81.84,0.0,25.8,32,1,1
10:55:30.256,VIGILE,1,174.79,-15.58,0.249,-1.458,3.294,-9.407,-0.111,0.079,-0.036,81.84,0.0,25.8,32,1,1
10:55:30.756,VIGILE,1,176.34,-18.75,0.254,-1.329,3.79,-9.237,-0.139,0.067,-0.018,81.84,0.0,25.8,32,1,1
10:55:31.256,VIGILE,1,177.59,-17.87,0.221,-1.161,2.871,-8.95,-0.126,0.068,-0.003,81.84,0.0,25.8,32,1,1
10:55:31.756,VIGILE,1,175.38,-16.47,0.253,-1.374,4.257,-8.823,-0.18,0.09,0.019,81.84,0.0,25.8,32,1,1
10:55:32.256,VIGILE,1,177.1,-17.55,0.195,-1.458,4.219,-8.181,-0.164,0.044,0.043,81.84,0.0,25.8,32,1,1
10:55:32.756,VIGILE,1,175.37,-11.89,0.247,-1.235,4.812,-8.866,-0.177,0.046,0.064,81.84,0.0,25.8,32,1,1
10:55:33.256,VIGILE,1,173.77,-6.93,0.223,-1.176,4.513,-8.674,-0.063,0.029,0.093,81.84,0.0,25.8,32,1,1
10:55:33.756,VIGILE,1,174.66,-4.54,0.249,-0.52,2.942,-8.803,-0.11,-0.003,0.083,81.84,0.0,25.8,32,1,1
10:55:34.256,VIGILE,1,172.77,-10.45,0.258,-0.474,3.409,-8.507,-0.167,0.037,0.034,81.84,0.0,25.8,32,1,1
10:55:34.756,VIGILE,1,160.44,-5.62,0.274,-1.693,4.413,-9.352,-0.116,0.059,-0.011,81.84,0.0,25.8,32,1,1
10:55:35.256,VIGILE,1,178.1,-19.05,0.282,-2.231,2.44,-9.292,-0.165,0.114,-0.071,81.84,0.0,25.8,32,1,1
10:55:35.756,VIGILE,1,-179.09,-13.53,0.261,-2.229,1.034,-9.519,-0.133,0.139,-0.237,81.84,0.0,25.8,32,1,1
10:55:36.256,VIGILE,1,177.62,-23.52,0.111,-2.217,1.451,-9.67,-0.189,0.13,-0.351,81.84,0.0,25.8,32,1,1
10:55:36.756,VIGILE,1,178.01,-28.92,0.277,-1.566,0.546,-9.505,-0.175,0.16,-0.374,81.84,0.0,25.8,32,1,1
10:55:37.257,VIGILE,1,176.63,-25.37,0.278,-1.87,0.792,-10.427,-0.137,0.168,-0.409,81.84,0.0,25.8,32,1,1
10:55:37.757,VIGILE,1,-178.27,-19.55,0.268,-0.551,0.773,-9.677,-0.315,0.25,-0.382,81.84,0.0,25.8,32,1,1
10:55:38.257,VIGILE,1,179.28,4.77,0.27,0.551,1.877,-9.819,-0.168,0.192,-0.1,81.84,0.0,25.8,32,1,1
10:55:38.757,VIGILE,1,177.99,19.54,0.266,-0.019,3.462,-8.528,-0.133,0.095,0.085,81.84,0.0,25.8,32,1,1
10:55:39.257,VIGILE,1,178.22,18.37,0.251,-0.053,4.925,-8.854,-0.138,-0.042,0.158,81.84,0.0,25.8,32,1,1
10:55:39.757,VIGILE,1,176.66,7.71,0.233,0.448,4.46,-8.241,-0.173,-0.008,0.143,81.84,0.0,25.8,32,1,1
10:55:40.257,VIGILE,1,175.73,-9.51,0.256,0.721,4.559,-8.152,-0.147,0.016,0.149,81.84,0.0,25.8,32,1,1
10:55:40.757,VIGILE,1,174.8,-10.14,0.21,-0.397,4.319,-9.91,-0.023,0.06,0.075,81.84,0.0,25.8,32,1,1
10:55:41.257,VIGILE,1,177.9,-21.58,0.25,0.687,3.915,-9.917,0.004,0.054,0.011,81.84,0.0,25.8,32,1,1
10:55:41.757,VIGILE,1,176.45,-17.81,0.2,-0.014,2.753,-8.38,-0.19,0.029,-0.044,81.84,0.0,25.8,32,1,1
10:55:42.257,VIGILE,1,174.28,-11.36,0.239,0.156,2.758,-9.656,-0.079,0.006,-0.013,81.84,0.0,25.8,32,1,1
10:55:42.757,VIGILE,1,170.29,-10.09,0.051,-0.596,3.469,-9.196,-0.157,0.066,-0.039,81.84,0.0,25.8,32,1,1
10:55:43.257,VIGILE,1,173.6,-7.5,0.256,-0.62,2.916,-8.435,-0.179,0.053,-0.05,81.84,0.0,25.8,32,1,1
10:55:43.757,VIGILE,1,172.65,-5.05,0.251,-0.965,4.341,-9.515,-0.09,0.023,-0.06,81.84,0.0,25.8,32,1,1
10:55:44.257,VIGILE,1,175.61,-9.88,0.253,0.168,2.789,-9.424,-0.152,0.056,-0.043,81.84,0.0,25.8,32,1,1
10:55:44.758,VIGILE,1,173.42,-7.98,0.262,0.496,2.318,-7.987,-0.237,0.02,-0.052,81.84,0.0,25.8,32,1,1
10:55:45.258,VIGILE,1,172.95,-2.08,0.092,-0.113,2.873,-9.251,-0.152,0.061,-0.061,81.84,0.0,25.8,32,1,1
10:55:45.758,VIGILE,1,173.65,-3.62,0.248,-0.397,3.381,-9.828,-0.126,0.087,-0.037,81.84,0.0,25.8,32,1,1
10:55:46.258,VIGILE,1,174.52,-3.29,0.241,-0.939,3.486,-9.364,-0.148,0.063,-0.045,81.84,0.0,25.8,32,1,1
10:55:46.758,VIGILE,1,173.73,-1.93,0.246,-0.529,4.125,-9.165,-0.062,0.114,-0.022,81.84,0.0,25.8,32,1,1
10:55:47.258,VIGILE,1,173.48,8.67,0.221,-0.627,3.067,-8.938,-0.15,0.063,-0.027,81.84,0.0,25.8,32,1,1
10:55:47.758,VIGILE,0,0.0,0.0,0.0,-1.008,3.421,-8.497,-0.189,0.075,-0.032,81.84,0.0,25.8,32,1,1
10:55:48.258,VIGILE,1,176.72,25.17,0.266,-0.524,3.879,-9.428,-0.12,0.053,-0.02,81.84,0.0,25.8,32,1,1
10:55:48.758,VIGILE,1,174.98,17.36,0.106,-0.862,4.037,-8.657,-0.15,0.04,-0.003,81.84,0.0,25.8,32,1,1
10:55:49.258,VIGILE,1,175.12,18.78,0.256,-1.367,3.965,-9.464,-0.064,0.022,-0.005,81.84,0.0,25.8,32,1,1
10:55:49.758,VIGILE,1,-180.0,55.11,0.41,-1.125,3.713,-9.369,-0.17,0.067,-0.032,81.84,0.0,25.8,32,1,1
10:55:50.258,VIGILE,1,171.92,47.92,0.377,-0.84,3.311,-9.163,-0.139,0.051,-0.034,81.84,0.0,25.8,32,1,1
10:55:50.758,VIGILE,1,173.61,32.32,0.262,-1.621,3.85,-7.594,-0.134,0.084,-0.014,81.84,0.0,25.8,32,1,1
10:55:51.258,VIGILE,1,176.94,41.22,0.139,-1.279,3.831,-8.569,-0.16,0.056,-0.003,81.84,0.0,25.8,32,1,1
10:55:51.758,VIGILE,1,-179.75,34.94,0.286,-2.15,3.994,-9.524,-0.172,0.047,-0.01,81.84,0.0,25.8,32,1,1
10:55:52.259,VIGILE,1,-172.35,53.01,0.348,-0.563,3.886,-8.37,-0.205,0.12,-0.019,81.84,0.0,25.8,32,1,1
10:55:52.759,VIGILE,1,172.87,22.02,0.238,-1.98,3.239,-9.534,-0.172,0.13,0.011,81.84,0.0,25.8,32,1,1
10:55:53.259,VIGILE,1,170.47,16.77,0.232,1.642,-0.955,-8.337,0.231,-0.054,0.097,81.84,0.0,25.8,32,1,1
10:55:53.759,VIGILE,1,173.06,45.3,0.358,-0.936,3.34,-8.78,-0.173,0.072,-0.016,81.84,0.0,25.8,32,1,1
10:55:54.259,VIGILE,1,177.63,9.85,0.23,-0.675,3.555,-8.787,-0.163,0.083,-0.033,81.84,0.0,25.8,32,1,1
10:55:54.759,VIGILE,1,175.15,5.59,0.244,0.055,3.191,-9.093,-0.171,0.086,-0.041,81.84,0.0,25.8,32,1,1
10:55:55.259,VIGILE,1,173.79,11.88,0.217,-0.996,3.515,-8.832,-0.124,0.059,-0.017,81.84,0.0,25.8,32,1,1
10:55:55.759,VIGILE,1,173.51,10.62,0.053,-0.819,3.108,-8.899,-0.161,0.049,-0.015,81.84,0.0,25.8,32,1,1
10:55:56.259,VIGILE,1,172.4,0.17,0.102,-1.089,3.941,-8.842,-0.121,0.039,-0.022,81.84,0.0,25.8,32,1,1
10:55:56.759,VIGILE,1,172.58,-0.84,0.175,-0.994,3.601,-9.103,-0.165,0.083,-0.046,81.84,0.0,25.8,32,1,1
10:55:57.259,VIGILE,1,171.98,-3.3,0.251,-0.541,3.05,-9.357,-0.098,0.052,-0.017,81.84,0.0,25.8,32,1,1
10:55:57.759,VIGILE,1,171.43,-5.06,0.223,-0.778,3.445,-9.543,-0.12,0.076,-0.011,81.84,0.0,25.8,32,1,1
10:55:58.259,VIGILE,1,170.77,-2.23,0.226,-0.876,3.184,-9.357,-0.15,0.069,-0.018,81.84,0.0,25.8,32,1,1
10:55:58.759,VIGILE,1,171.59,-2.63,0.218,0.026,2.899,-8.583,-0.178,0.077,-0.02,81.84,0.0,25.8,32,1,1
10:55:59.259,VIGILE,1,171.64,-4.12,0.21,-1.618,3.752,-10.274,-0.226,0.061,-0.03,81.84,0.0,25.8,32,1,1
10:55:59.759,VIGILE,1,172.33,-0.91,0.197,-0.649,3.072,-8.538,-0.173,0.063,-0.056,81.84,0.0,25.8,32,1,1
10:56:00.260,VIGILE,1,173.62,-5.27,0.242,-1.453,3.27,-9.598,-0.14,0.039,-0.024,81.84,0.0,25.8,32,1,1
10:56:00.760,VIGILE,1,176.38,-5.43,0.249,-1.104,2.677,-8.933,-0.119,0.076,-0.02,81.84,0.0,25.8,32,1,1
10:56:01.260,VIGILE,1,173.8,-6.84,0.23,-1.281,2.614,-9.471,-0.118,0.054,-0.042,81.84,0.0,25.8,32,1,1
10:56:01.760,VIGILE,1,178.15,-0.67,0.254,-0.702,2.974,-9.634,-0.141,0.076,-0.03,81.84,0.0,25.8,32,1,1
10:56:02.260,VIGILE,1,177.02,3.71,0.244,-0.831,3.01,-9.043,-0.131,0.082,-0.012,81.84,0.0,25.8,32,1,1
10:56:02.760,VIGILE,1,176.25,2.51,0.235,-1.022,3.287,-9.601,-0.098,0.116,-0.021,81.84,0.0,25.8,32,1,1
10:56:03.260,VIGILE,1,177.65,4.71,0.267,-1.049,2.081,-9.641,-0.176,0.078,-0.009,81.84,0.0,25.8,32,1,1
10:56:03.760,DISTRAZIONE,1,179.75,26.94,0.27,1.748,2.655,-11.777,-0.166,0.105,0.128,81.84,0.0,25.8,32,1,1
10:56:04.260,DISTRAZIONE,1,-179.18,39.45,0.248,-0.163,4.602,-8.645,-0.145,0.014,0.039,81.84,0.0,25.8,32,1,1
10:56:04.760,DISTRAZIONE,1,-179.8,64.06,0.587,-2.346,3.361,-9.756,0.098,0.028,0.053,81.84,0.0,25.8,32,1,1
10:56:05.260,DISTRAZIONE,1,178.72,33.61,0.273,-1.563,3.527,-9.598,-0.165,0.095,-0.014,81.84,0.0,25.8,32,1,1
10:56:05.760,DISTRAZIONE,1,179.57,25.9,0.267,-1.243,0.706,-8.047,-0.283,0.075,-0.251,81.84,0.0,25.8,32,1,1
10:56:06.260,DISTRAZIONE,1,-171.93,52.21,0.303,-1.607,3.323,-8.935,-0.054,0.009,-0.004,81.84,0.0,25.8,32,1,1
10:56:06.760,DISTRAZIONE,1,-169.67,65.2,0.499,-0.685,3.687,-8.818,-0.099,0.064,0.032,81.84,0.0,25.8,32,1,1
10:56:07.260,DISTRAZIONE,1,-179.7,25.35,0.298,-0.8,2.672,-8.933,-0.181,0.098,-0.026,81.84,0.0,25.8,32,1,1
10:56:07.760,DISTRAZIONE,1,-177.16,65.0,0.637,-0.728,3.531,-8.346,-0.241,0.094,-0.006,81.84,0.0,25.8,32,1,1
10:56:08.261,DISTRAZIONE,1,-172.66,56.43,0.374,-0.579,3.369,-8.729,-0.129,0.096,-0.006,81.84,0.0,25.8,32,1,1
10:56:08.761,DISTRAZIONE,1,178.51,21.66,0.282,-0.347,2.6,-9.28,-0.142,0.091,-0.034,81.84,0.0,25.8,32,1,1
10:56:09.261,DISTRAZIONE,1,178.06,1.54,0.267,-0.919,2.749,-9.507,-0.176,0.113,-0.027,81.84,0.0,25.8,32,1,1
10:56:09.761,DISTRAZIONE,1,177.73,-1.94,0.229,-0.797,2.775,-9.409,-0.185,0.075,-0.026,81.84,0.0,25.8,32,1,1
10:56:10.261,DISTRAZIONE,1,174.11,-2.13,0.264,-0.39,2.504,-9.515,-0.221,0.112,-0.033,81.84,0.0,25.8,32,1,1
10:56:10.761,DISTRAZIONE,1,176.52,-4.45,0.252,-0.426,3.098,-8.988,-0.135,0.027,-0.021,81.84,0.0,25.8,32,1,1
10:56:11.261,DISTRAZIONE,1,175.67,1.14,0.237,-0.555,3.012,-9.572,-0.138,0.082,-0.015,81.84,0.0,25.8,32,1,1
10:56:11.761,DISTRAZIONE,1,175.23,-7.6,0.249,-0.608,2.631,-8.373,-0.186,0.103,-0.03,81.84,0.0,25.8,32,1,1
10:56:12.261,DISTRAZIONE,1,172.01,-3.6,0.239,-0.148,2.986,-9.088,-0.187,0.114,-0.031,81.84,0.0,25.8,32,1,1
10:56:12.761,DISTRAZIONE,1,172.37,-2.17,0.14,-0.242,3.316,-9.546,-0.121,0.015,-0.021,81.84,0.0,25.8,32,1,1
10:56:13.261,DISTRAZIONE,1,172.81,-1.68,0.23,0.144,3.086,-8.662,-0.126,0.06,-0.027,81.84,0.0,25.8,32,1,1
10:56:13.761,DISTRAZIONE,1,172.61,-3.06,0.204,-2.049,3.122,-8.978,-0.117,0.106,-0.023,81.84,0.0,25.8,32,1,1
10:56:14.261,DISTRAZIONE,1,173.57,-4.68,0.145,-1.231,3.148,-9.246,-0.131,0.013,-0.019,81.84,0.0,25.8,32,1,1
10:56:14.761,DISTRAZIONE,1,174.1,-2.56,0.255,-1.137,3.304,-9.143,-0.0,0.018,0.007,81.84,0.0,25.8,32,1,1
10:56:15.261,DISTRAZIONE,1,171.69,-3.59,0.107,-1.702,3.369,-10.022,-0.106,0.114,-0.002,81.84,0.0,25.8,32,1,1
10:56:15.762,DISTRAZIONE,1,172.5,0.82,0.242,-1.36,3.27,-8.607,-0.14,0.07,-0.024,81.84,0.0,25.8,32,1,1
10:56:16.262,DISTRAZIONE,1,173.0,-3.77,0.254,-0.599,2.926,-10.039,-0.069,0.054,0.006,81.84,0.0,25.7,32,1,1
10:56:16.762,DISTRAZIONE,1,171.99,0.82,0.268,-1.211,3.773,-9.213,-0.162,0.103,-0.017,81.84,0.0,25.7,32,1,1
10:56:17.262,DISTRAZIONE,1,176.13,-2.32,0.26,-1.24,3.098,-9.175,-0.128,0.111,-0.017,81.84,0.0,25.7,32,1,1
10:56:17.762,DISTRAZIONE,1,174.89,1.61,0.196,0.34,2.931,-9.675,-0.098,0.043,-0.02,81.84,0.0,25.7,32,1,1
10:56:18.262,DISTRAZIONE,1,175.06,-2.81,0.227,-0.575,2.725,-9.309,-0.084,0.042,-0.01,81.84,0.0,25.7,32,1,1
10:56:18.762,DISTRAZIONE,1,172.77,-4.45,0.249,-1.135,3.505,-8.983,-0.133,0.077,-0.007,81.84,0.0,25.7,32,1,1
10:56:19.262,DISTRAZIONE,1,173.5,-8.02,0.255,-1.331,3.378,-9.74,-0.128,0.078,-0.008,81.84,0.0,25.7,32,1,1
10:56:19.762,DISTRAZIONE,1,175.82,-8.7,0.264,-1.757,3.622,-8.885,-0.162,0.059,-0.036,81.84,0.0,25.7,32,1,1
10:56:20.262,DISTRAZIONE,1,174.94,-2.83,0.255,-1.805,3.01,-9.352,-0.125,0.086,-0.029,81.84,0.0,25.7,32,1,1
10:56:20.762,DISTRAZIONE,1,174.07,-4.16,0.222,-0.797,3.831,-9.831,-0.075,0.061,-0.011,81.84,0.0,25.7,32,1,1
10:56:21.262,DISTRAZIONE,1,174.06,-4.4,0.233,-0.924,3.524,-9.689,-0.024,0.018,0.009,81.84,0.0,25.7,32,1,1
10:56:21.762,DISTRAZIONE,1,175.54,-4.6,0.264,-0.591,2.708,-9.143,-0.161,0.055,-0.022,81.84,0.0,25.7,32,1,1
10:56:22.262,DISTRAZIONE,1,173.09,-3.29,0.187,-0.972,3.093,-8.765,-0.148,0.094,-0.019,81.84,0.0,25.7,32,1,1
10:56:22.762,DISTRAZIONE,1,175.74,-6.48,0.281,-0.639,3.412,-9.397,-0.122,0.084,-0.017,81.84,0.0,25.7,32,1,1
10:56:23.262,DISTRAZIONE,1,174.26,13.5,0.231,-0.441,3.122,-10.223,-0.038,0.01,0.008,81.84,0.0,25.7,32,1,1
10:56:23.763,DISTRAZIONE,1,175.67,7.89,0.261,-1.305,3.242,-8.847,-0.117,0.043,0.005,81.84,0.0,25.7,32,1,1
10:56:24.263,DISTRAZIONE,1,177.5,-0.21,0.262,-0.168,3.165,-8.782,-0.123,0.069,0.007,81.84,0.0,25.7,32,1,1
10:56:24.763,VIGILE,1,176.8,-6.18,0.267,-0.101,3.021,-9.014,-0.218,0.078,-0.018,81.84,0.0,25.7,32,1,1
10:56:25.263,VIGILE,1,178.52,-10.43,0.277,-1.058,4.032,-9.244,-0.129,0.067,0.038,81.84,0.0,25.7,32,1,1
10:56:25.763,VIGILE,1,178.18,-12.52,0.278,-0.924,3.455,-8.607,-0.189,0.118,0.014,81.84,0.0,25.7,32,1,1
10:56:26.263,VIGILE,1,-179.85,-14.69,0.279,-0.381,3.213,-10.41,-0.086,0.066,0.06,81.84,0.0,25.7,32,1,1
10:56:26.763,VIGILE,1,178.14,-4.15,0.234,-0.797,4.293,-9.201,-0.01,0.043,0.041,81.84,0.0,25.7,32,1,1
10:56:27.263,VIGILE,1,177.14,-9.33,0.228,-1.07,1.616,-9.857,-0.054,0.007,0.03,81.84,0.0,25.7,32,1,1
10:56:27.763,VIGILE,1,178.23,-4.61,0.259,-1.405,3.273,-9.586,-0.107,0.01,0.021,81.84,0.0,25.7,32,1,1
10:56:28.263,VIGILE,1,178.53,-7.91,0.263,-0.251,3.017,-9.031,-0.155,0.067,0.018,81.84,0.0,25.7,32,1,1
10:56:28.763,VIGILE,1,175.74,-3.98,0.207,-1.243,4.063,-9.134,-0.11,0.08,0.027,81.84,0.0,25.7,32,1,1
10:56:29.263,VIGILE,1,173.95,-1.35,0.261,-0.709,4.293,-10.436,-0.134,0.114,0.052,81.84,0.0,25.7,32,1,1
10:56:29.763,VIGILE,1,177.02,-6.92,0.272,-2.093,4.628,-8.59,-0.083,0.024,0.051,81.84,0.0,25.7,32,1,1
10:56:30.263,VIGILE,1,-179.9,-8.38,0.163,-0.582,2.406,-9.335,-0.184,0.048,0.021,81.84,0.0,25.7,32,1,1
10:56:30.763,VIGILE,1,178.46,-10.59,0.283,-0.747,2.43,-8.574,-0.121,0.015,0.04,81.84,0.0,25.7,32,1,1
10:56:31.263,VIGILE,1,177.76,-9.89,0.25,-0.536,4.082,-9.445,-0.165,0.035,0.002,81.84,0.0,25.7,32,1,1
10:56:31.764,VIGILE,1,174.23,-1.63,0.141,-1.982,2.835,-10.963,0.126,0.062,0.035,81.84,0.0,25.7,32,1,1
10:56:32.264,VIGILE,1,175.01,-5.0,0.254,-0.764,3.857,-8.167,-0.216,0.112,-0.033,81.84,0.0,25.7,32,1,1
10:56:32.764,VIGILE,1,174.18,-5.97,0.262,-0.548,3.759,-10.953,0.054,0.001,0.009,81.84,0.0,25.7,32,1,1
10:56:33.264,VIGILE,1,176.19,-9.22,0.262,-0.362,3.74,-8.298,-0.124,0.063,-0.022,81.84,0.0,25.7,32,1,1
10:56:33.764,VIGILE,1,174.37,-3.88,0.247,-0.51,3.4,-9.656,-0.214,0.089,-0.027,81.84,0.0,25.6,32,1,1
10:56:34.264,VIGILE,1,174.8,-12.6,0.273,-0.412,3.481,-9.682,-0.168,0.033,0.004,81.84,0.0,25.6,32,1,1
10:56:34.764,VIGILE,1,174.66,-15.35,0.262,-1.508,3.503,-9.371,-0.141,0.103,-0.02,81.84,0.0,25.6,32,1,1
10:56:35.264,VIGILE,1,175.33,-9.59,0.256,-1.209,3.699,-9.165,-0.119,0.041,0.003,81.84,0.0,25.6,32,1,1
10:56:35.764,VIGILE,1,172.78,-12.58,0.26,-2.574,3.737,-7.781,-0.155,0.108,-0.023,81.84,0.0,25.6,32,1,1
10:56:36.264,VIGILE,1,173.0,-2.38,0.251,-1.779,3.165,-9.218,-0.083,0.082,-0.015,81.84,0.0,25.6,32,1,1
10:56:36.764,VIGILE,1,173.59,-2.22,0.065,-0.725,2.904,-9.275,-0.151,0.096,-0.023,81.84,0.0,25.6,32,1,1
10:56:37.265,VIGILE,1,177.92,-8.44,0.248,-0.898,3.141,-8.993,-0.166,0.087,-0.027,81.84,0.0,25.6,32,1,1
10:56:37.765,VIGILE,1,176.28,-11.21,0.233,-0.512,3.68,-9.546,-0.004,0.049,-0.02,81.84,0.0,25.6,32,1,1
10:56:38.265,VIGILE,1,176.73,-4.66,0.247,-0.783,2.84,-9.143,-0.103,0.121,-0.029,81.84,0.0,25.6,32,1,1
10:56:38.765,VIGILE,1,178.34,-4.72,0.211,-0.122,2.772,-9.215,-0.192,0.057,-0.021,81.84,0.0,25.6,32,1,1
10:56:39.265,VIGILE,1,176.98,-12.88,0.24,-0.886,3.488,-10.386,-0.066,-0.002,0.001,81.84,0.0,25.6,32,1,1
10:56:39.765,VIGILE,1,175.97,-14.15,0.197,-0.177,2.449,-8.969,-0.175,0.095,-0.027,81.84,0.0,25.6,32,1,1
10:56:40.265,VIGILE,1,176.85,7.42,0.214,-0.783,3.488,-9.232,-0.12,0.039,-0.018,81.84,0.0,25.6,32,1,1
10:56:40.765,VIGILE,1,177.42,-8.81,0.229,-1.125,3.395,-9.747,-0.088,0.057,-0.009,81.84,0.0,25.6,32,1,1
10:56:41.265,VIGILE,1,178.28,-11.82,0.236,-0.637,2.818,-9.515,-0.205,0.076,-0.035,81.84,0.0,25.6,32,1,1
10:56:41.765,VIGILE,1,177.75,-12.97,0.264,-0.302,2.895,-8.844,-0.141,0.108,-0.025,81.84,0.0,25.6,32,1,1
10:56:42.265,VIGILE,1,177.06,-13.2,0.26,-0.309,2.313,-7.934,-0.218,0.121,-0.025,81.84,0.0,25.6,32,1,1
10:56:42.765,VIGILE,1,175.55,-14.93,0.255,-0.891,2.789,-9.007,-0.141,0.037,-0.022,81.84,0.0,25.6,32,1,1
10:56:43.265,VIGILE,1,175.48,-9.74,0.217,-2.363,3.024,-9.079,-0.097,0.045,-0.015,81.84,0.0,25.6,32,1,1
10:56:43.765,VIGILE,1,177.4,-14.31,0.259,-0.378,3.393,-8.878,-0.21,0.112,-0.063,81.84,0.0,25.6,32,1,1
10:56:44.266,VIGILE,1,174.81,-7.89,0.272,-1.858,3.764,-8.871,-0.121,0.121,-0.017,81.84,0.0,25.6,32,1,1
10:56:44.766,VIGILE,1,176.82,-11.06,0.263,-1.085,3.575,-9.158,-0.145,0.059,-0.008,81.84,0.0,25.6,32,1,1
10:56:45.266,VIGILE,1,177.19,-12.43,0.249,-1.381,3.689,-8.892,-0.124,0.046,0.0,81.84,0.0,25.6,32,1,1
10:56:45.766,VIGILE,1,175.62,-12.36,0.246,-1.875,2.672,-9.244,0.052,0.008,0.021,81.84,0.0,25.6,32,1,1
10:56:46.266,VIGILE,1,179.05,-13.21,0.25,-1.65,3.601,-9.108,-0.027,0.066,0.005,81.84,0.0,25.6,32,1,1
10:56:46.766,VIGILE,1,175.45,-9.76,0.19,-1.353,2.926,-8.885,-0.115,0.031,-0.019,81.84,0.0,25.6,32,1,1
10:56:47.266,VIGILE,1,175.76,-8.99,0.244,-1.298,3.517,-9.481,-0.047,0.013,0.007,81.84,0.0,25.6,32,1,1
10:56:47.766,VIGILE,1,177.59,-9.3,0.258,-1.149,3.321,-9.29,-0.18,0.049,-0.032,81.84,0.0,25.6,32,1,1
10:56:48.266,VIGILE,1,175.36,-6.4,0.259,-1.674,3.479,-9.282,-0.122,0.021,-0.007,81.84,0.0,25.6,32,1,1
10:56:48.766,VIGILE,1,176.4,-7.63,0.263,-1.025,3.093,-9.007,-0.152,0.124,-0.018,81.84,0.0,25.6,32,1,1
10:56:49.266,VIGILE,1,177.66,-7.49,0.251,-0.788,3.373,-8.545,-0.188,0.068,-0.017,81.84,0.0,25.6,32,1,1
10:56:49.766,VIGILE,1,175.65,-4.11,0.247,-1.085,2.892,-9.476,-0.181,0.094,-0.034,81.84,0.0,25.6,32,1,1
10:56:50.266,VIGILE,1,177.84,-7.04,0.273,-0.871,3.56,-9.072,-0.124,0.007,-0.024,81.84,0.0,25.6,32,1,1
10:56:50.766,VIGILE,1,170.05,-34.81,0.332,-2.136,3.56,-10.965,-0.143,0.172,-0.019,81.84,0.0,25.6,32,1,1
10:56:51.266,VIGILE,1,176.11,-37.86,0.336,-1.427,3.168,-8.612,-0.113,0.079,-0.008,81.84,0.0,25.6,32,1,1
10:56:51.766,VIGILE,1,176.17,-34.06,0.334,-1.597,3.414,-9.424,-0.033,0.014,0.0,81.84,0.0,25.6,32,1,1
10:56:52.267,DISTRAZIONE,1,-177.28,-41.82,0.349,-2.229,4.14,-8.159,-0.177,0.079,-0.03,81.84,0.0,25.6,32,1,1
10:56:52.767,DISTRAZIONE,1,-167.48,-72.08,0.443,-1.02,3.804,-8.837,-0.187,0.081,-0.009,81.84,0.0,25.6,32,1,1
10:56:53.267,DISTRAZIONE,1,178.62,-32.12,0.391,-1.427,4.058,-8.657,-0.132,0.09,0.014,81.84,0.0,25.6,32,1,1
10:56:53.767,DISTRAZIONE,1,-178.95,-70.39,0.345,-2.16,5.507,-8.665,-0.099,0.01,0.098,81.84,0.0,25.6,32,1,1
10:56:54.267,DISTRAZIONE,1,-179.1,-37.5,0.36,-1.607,5.353,-8.602,-0.205,0.043,0.047,81.84,0.0,25.6,32,1,1
10:56:54.767,DISTRAZIONE,1,-176.87,-24.33,0.305,0.05,3.555,-10.032,-0.01,0.082,0.09,81.84,0.0,25.6,32,1,1
10:56:55.267,DISTRAZIONE,1,177.35,28.67,0.24,-0.986,3.053,-9.256,-0.114,-0.001,0.047,81.84,0.0,25.6,32,1,1
10:56:55.767,DISTRAZIONE,1,172.97,28.07,0.245,-0.917,4.803,-8.988,-0.049,-0.043,0.066,81.84,0.0,25.6,32,1,1
10:56:56.267,VIGILE,1,178.82,27.32,0.238,-0.522,3.91,-8.662,-0.168,0.051,0.107,81.84,0.0,25.6,32,1,1
10:56:56.767,VIGILE,1,177.96,24.53,0.232,-0.903,4.743,-9.189,-0.131,0.038,0.113,81.84,0.0,25.6,32,1,1
